ax,ay,az,gx,gy,gz,mx,my,mz,user
0.12150574,7.48188,6.8186865,-0.056505036,0.3115413,0.02565634,-9.875,-6.805,12.207,1
0.03172317,7.469909,6.4068837,0.14844026,-0.04917465,-0.01160644,-7.145,-7.92,11.058,1
-0.029927522,7.4567413,6.6762314,-0.025350908,0.021380283,-0.018325957,-7.963,-7.563,10.284,1
0.2160767,7.4986396,6.7133417,0.00030543262,0.018325957,-0.010079277,-7.374,-7.643,9.609,1
0.012569559,7.4812818,6.7145386,-0.009468411,-0.004581489,-0.019242255,-7.034,-7.643,9.609,1
-0.60573304,7.627927,6.3165026,-0.025961773,0.172264,0.057726767,-5.993,-7.643,9.609,1
-0.18674773,7.1706343,6.964134,-0.41447207,0.91446525,0.49021935,-5.628,-7.643,9.303,1
0.3549404,6.479907,7.802105,-0.45204028,1.5131133,0.86070913,-4.962,-5.7,8.602,1
-0.22505496,6.308123,7.714118,0.1695151,0.6038403,0.0421497,-4.316,-4.676,8.247,1
-1.0319009,6.9784994,7.1383123,0.32925636,-0.795652,-0.36285394,-2.929,-4.283,7.923,1
-0.28431144,7.281366,7.0305734,0.050396383,-0.31123585,-0.017715093,-3.279,-4.708,8.259,1
-1.3868413,8.054094,5.549161,0.0842994,0.72356987,0.21288654,-3.808,-5.793,8.259,1
0.6398504,6.9707184,6.3871317,0.23151793,0.09621128,0.33108896,-4.125,-6.094,8.259,1
0.5530606,6.9743094,7.2245035,-0.30970868,-0.42088616,0.28099802,-4.125,-5.778,8.59,1
-0.45848963,7.2664022,7.092224,-0.25809056,-0.9639453,-0.03726278,-5.122,-5.143,8.59,1
1.8986019,6.64391,7.1688385,-0.08460484,-0.020158553,1.010982,-5.97,-4.457,8.59,1
2.071583,6.455366,6.9318123,-0.16401732,0.013133603,1.3808609,-7.423,-3.839,8.59,1
1.8405426,1.328782,7.462128,0.39522982,-0.73914695,2.112983,-9.373,-2.793,8.59,1
5.94181,6.3793507,6.187216,0.49205196,0.7058548,1.9706513,-10.519,-1.605,8.59,1
4.3221326,5.8532248,5.7323174,0.473726,0.5290093,0.52564955,-11.529,-0.942,8.59,1
2.2140381,3.807978,8.762179,-1.1279627,2.0332649,0.95722586,-11.529,-0.642,8.59,1
1.6394296,3.4805708,7.3340383,-0.043066,-0.3475823,2.4492643,-10.484,1.962,7.899,1
9.223662,2.397793,4.879383,0.10720685,-1.7244726,4.145942,-13.136,5.274,7.543,1
7.926005,1.7166426,7.6770077,-0.8002335,0.16676621,0.7629707,-15.64,10.374,8.76,1
7.3226657,0.05267244,7.801506,-0.91813046,0.2874121,0.14935656,-16.459,13.11,10.076,1
7.165247,-0.9451111,6.5026517,-0.81581056,0.8200866,-0.0571159,-16.772,14.443,10.829,1
6.8198833,-1.797447,7.120356,-0.35094208,-0.048258353,-0.051923547,-16.409,15.223,10.829,1
7.0581064,-1.2898762,7.1634517,0.080634214,-0.17898351,0.009162978,-16.038,16.471,10.829,1
6.985682,-1.3030443,6.927623,0.054061573,-0.14721853,-0.022296581,-16.426,17.146,11.148,1
7.227496,-1.3868413,6.671443,0.035124753,-0.3436117,-0.0015271631,-17.144,17.146,11.148,1
7.3950906,-1.3569138,6.7067575,0.12308934,-0.50335294,0.003970624,-17.462,17.146,11.506,1
7.7266874,-1.1420342,6.4463882,0.07391469,-0.34330627,-0.0036651916,-17.823,17.146,11.875,1
7.6949644,-1.2952632,6.353613,-0.008857546,-0.11209377,-0.011911872,-18.521,17.146,12.179,1
7.7985134,-1.3102269,6.319495,-0.023518313,0.01740966,-0.04550946,-18.873,17.146,12.521,1
7.713519,-1.2617443,6.3470287,0.021685716,0.027488936,-0.058337633,-18.873,17.146,12.521,1
7.731476,-1.2090719,6.269816,0.0012217305,-0.023823744,-0.040011674,-18.873,17.146,12.521,1
7.769783,-1.3796587,6.5577183,-0.07727446,0.11301007,-0.06047566,-19.248,17.146,12.521,1
7.6931686,-1.3521254,6.3751607,-0.040317107,0.004276057,-0.022907447,-19.595,17.146,12.855,1
7.693767,-1.3958195,6.3284736,-0.1685988,0.07269296,-0.014660766,-19.975,17.146,12.855,1
7.615956,-1.4490906,6.4667387,-0.09987647,0.20280726,-0.026267206,-19.665,17.146,12.855,1
7.6907744,-1.614889,6.26802,0.010079277,0.18387043,-0.12034045,-18.661,17.48,12.55,1
7.4842744,-1.6065093,6.5726824,-0.002443461,0.18997909,-0.12858713,-17.973,17.48,12.24,1
7.2610154,-1.4826094,6.9360023,-0.031154128,0.1459968,-0.15210545,-17.672,17.48,11.914,1
7.1245456,-1.3329718,6.8168907,-0.009468411,0.20158553,-0.054061573,-17.672,17.48,11.914,1
7.243657,-1.4478935,7.2508397,0.049480084,0.062308256,0.008552114,-17.672,17.48,11.914,1
6.160281,-1.4640543,7.1951747,-0.03390302,-0.03023783,0.09468412,-17.34,17.48,11.914,1
7.5692687,-1.364695,7.189788,-0.11148291,-0.15332718,0.15363261,-16.989,17.48,11.914,1
7.3711486,-1.6567876,6.769605,-0.12003502,-0.09101892,-0.014049901,-16.989,17.784,11.914,1
7.3220673,-2.2756886,6.6726403,-0.113926366,-0.31581733,-0.025045475,-16.989,18.431,12.222,1
7.5471225,-1.6112977,6.7839704,0.013439035,-0.03481932,-0.021685716,-16.607,18.431,12.222,1
7.3106947,-1.5855601,5.873575,-0.071776666,0.14049901,-0.15821409,-16.607,18.431,12.564,1
7.305308,-2.0763714,6.5750766,-0.21655174,-0.17501289,0.04153884,-16.305,18.431,12.564,1
7.4896617,-2.3277626,6.2362967,-0.12797627,-0.24404067,-0.0711658,-16.305,18.739,12.564,1
7.608773,-2.023699,6.2123547,0.04062254,0.2611449,-0.21135938,-16.305,19.07,12.866,1
7.2544312,-1.7932571,6.4020953,-0.007330383,0.25167647,-0.2574797,-16.305,19.07,13.195,1
7.349601,-2.094328,6.9066734,-0.073303826,0.23090707,-0.110872045,-16.305,19.07,13.195,1
7.004237,-1.845331,6.939594,-0.008857546,0.09896017,-0.07880162,-16.305,19.07,12.89,1
7.3166804,-1.6154876,6.3871317,0.05467244,-0.04642576,-0.043676864,-16.644,19.07,12.89,1
7.45315,-1.5975311,6.302736,0.095294975,-0.07880162,-0.06719518,-16.644,19.07,12.89,1
7.510012,-1.7124528,6.5020533,0.083383106,-0.06383542,-0.06994407,-16.32,18.734,12.89,1
7.445967,-1.7016789,6.5241995,0.07849618,-0.0842994,-0.08307768,-16.32,18.734,12.89,1
7.451354,-1.5933412,6.449381,0.025350908,-0.05131268,-0.0009162979,-16.32,18.434,12.89,1
7.5231805,-1.4694413,6.329671,-0.02321288,0.06841691,-0.004886922,-16.32,18.434,12.89,1
7.5495167,-1.6071079,6.533178,-0.02443461,0.051618114,-0.045814894,-16.32,18.434,12.89,1
7.4735007,-1.7232267,6.505645,-0.014966198,0.06719518,-0.004886922,-16.32,18.434,12.89,1
7.417835,-1.4987702,6.3607955,0.087659165,0.10262536,-0.06841691,-16.32,18.434,12.579,1
7.395689,-1.6232687,6.599617,0.08857546,-0.034513887,-0.09682214,-16.32,18.434,12.579,1
7.4058642,-1.7705121,6.678027,0.12614368,-0.024740042,-0.09315695,-16.63,18.113,12.579,1
7.5088153,-1.1833342,6.401497,0.18509217,-0.07269296,-0.10445796,-16.63,17.785,12.579,1
7.562086,-1.0594343,6.6804214,0.16493362,0.06047566,-0.08735373,-16.63,17.436,12.266,1
7.6309195,-0.95349085,6.5607114,0.18967366,-0.17073683,-0.07513642,-16.993,17.095,12.266,1
7.757812,-0.76434886,6.491878,0.21013765,-0.2837469,0.03573562,-16.993,16.372,12.266,1
7.529764,-0.033518825,5.716755,0.25595254,0.102319926,-0.004886922,-16.993,16.059,12.266,1
7.5968018,-1.1216835,6.921637,-0.2312125,0.18142697,-0.00580322,-17.306,15.748,12.266,1
7.5962033,-1.0995371,6.8881183,-0.19792034,0.1301143,0.0021380284,-17.306,15.748,12.266,1
7.639299,-1.0941502,6.485294,-0.14294247,-0.07574729,0.044593163,-17.306,16.065,11.964,1
7.6129627,-1.1707647,6.332065,-0.05681047,-0.054061573,0.009468411,-17.306,16.409,12.306,1
7.6015906,-1.2856863,6.4787097,-0.093462385,0.0061086523,0.0106901415,-17.637,17.048,12.306,1
7.627328,-1.3706805,6.4721255,-0.053450707,-0.05100725,0.018936822,-17.958,17.367,12.306,1
7.6369047,-1.3066356,6.4625487,-0.004276057,0.024740042,-0.021685716,-18.27,17.367,12.623,1
7.627927,-1.3581109,6.4062853,0.019547688,0.02107485,-0.052534413,-18.27,17.669,12.623,1
7.5866265,-1.2785037,6.4625487,0.0067195175,0.04734206,-0.03145956,-18.27,17.669,12.623,1
7.6482773,-1.2964603,6.479308,-0.043676864,0.03940081,-0.017104227,-18.27,17.669,12.623,1
7.6387005,-1.3144168,6.5379663,-0.0033597588,0.101098195,-0.02076942,-18.27,17.669,12.322,1
7.4884644,-1.4640543,6.5840545,0.0290161,0.10934488,-0.069027774,-18.27,17.669,12.322,1
7.6668324,-1.2318168,6.6385226,-0.13897185,-0.101098195,-0.032070424,-17.967,17.669,12.322,1
7.4603324,-1.2940661,6.3703723,-0.0012217305,-0.01282817,-0.055283304,-17.967,17.669,12.322,1
7.4561424,-1.5975311,6.687604,-0.03023783,0.06688975,-0.011911872,-18.344,17.973,12.322,1
7.5345526,-1.3940239,6.567894,0.06414085,0.0030543262,-0.049785517,-18.344,17.973,12.322,1
7.5327573,-1.1851299,6.827665,-0.058948494,0.03573562,-0.003970624,-18.043,17.973,12.322,1
7.6800003,-1.2611457,6.4846954,-0.02107485,-0.016187929,-0.040927973,-17.742,17.973,12.322,1
7.2783732,-1.7244238,6.551733,-0.004886922,-0.048258353,-0.051923547,-17.742,17.973,12.322,1
7.6009917,-1.2090719,6.5403605,-0.009773844,0.076052725,-0.028099801,-17.742,17.973,12.322,1
7.4908586,-1.3880384,6.7971387,-0.052839845,0.038789943,-0.03940081,-17.433,17.973,12.016,1
7.545925,-1.5388732,6.51582,-0.040927973,-0.16920967,-0.038789943,-17.433,17.973,12.016,1
7.5052238,-1.3467385,6.4469867,-0.081855945,-0.13713925,-0.046731193,-17.433,17.973,12.332,1
7.5267715,-1.4951789,6.4020953,0.06352998,-0.09987647,-0.094989546,-17.433,17.973,12.64,1
7.60578,-1.3976152,6.010045,0.07544186,-0.05467244,-0.062002823,-17.765,17.973,12.64,1
8.006809,-1.8842367,6.3099184,-0.22296582,0.06536258,0.032070424,-17.765,17.973,12.64,1
7.547721,-1.5771804,7.0024414,0.27488935,0.9074403,0.0036651916,-17.765,17.973,12.64,1
7.3388267,-1.436521,7.0329676,-0.038789943,0.027183503,-0.022907447,-17.1,17.973,11.988,1
7.143699,-1.3772645,6.609194,-0.021685716,-0.09896017,-0.06505715,-17.1,17.973,11.665,1
7.2065473,-1.2036849,6.5966244,0.065973446,-0.09468412,-0.059253927,-17.451,17.973,11.665,1
7.3567834,-1.2551602,6.7360864,-0.007941248,-0.048258353,-0.071776666,-17.451,17.973,12.011,1
7.654263,-1.174356,6.6971807,0.027794369,-0.038789943,-0.040011674,-17.768,17.973,12.011,1
7.4070616,-1.1857284,6.794146,-0.011911872,-0.106595986,-0.0421497,-17.768,17.973,12.011,1
7.538144,-1.459266,6.5068417,-0.118507855,-0.24495697,-0.03390302,-18.086,17.973,12.319,1
7.5770497,-1.4443022,6.435614,-0.029932396,-0.028405234,-0.03573562,-18.428,17.973,12.643,1
7.6009917,-1.508347,6.4344172,-0.009773844,-0.038179077,-0.027183503,-18.734,18.273,12.643,1
7.6165543,-1.4119805,6.3751607,0.004276057,0.01985312,-0.037873644,-18.734,18.273,12.643,1
7.575254,-1.4454993,6.485294,-0.0033597588,0.04184427,-0.05100725,-18.734,18.273,12.643,1
7.5770497,-1.4454993,6.5499372,-0.01282817,0.0143553335,-0.028405234,-18.734,18.273,12.643,1
7.560889,-1.4927847,6.4667387,-0.022296581,0.004886922,-0.019547688,-17.933,18.273,12.643,1
7.611766,-1.4748282,6.4739213,-0.012217305,0.0143553335,-0.023518313,-17.607,18.273,12.643,1
7.578247,-1.4646529,6.393716,-0.008552114,-0.0015271631,-0.03268129,-17.607,18.273,12.643,1
7.5441294,-1.5089456,6.5086374,0.009773844,0.10323623,-0.04642576,-17.948,18.273,12.643,1
7.5866265,-1.3251907,6.4924765,0.018936822,0.02687807,-0.038789943,-17.948,18.273,12.643,1
7.514202,-1.3784616,6.4739213,0.003970624,0.013439035,-0.041233405,-17.948,18.273,12.643,1
7.61416,-1.4030021,6.578069,-0.033292156,0.008857546,-0.028099801,-17.619,18.273,12.643,1
7.530363,-1.453879,6.4751186,0.008552114,0.022296581,-0.032375857,-17.619,18.273,12.643,1
7.511808,-1.441908,6.537368,0.007330383,0.025961773,-0.035430185,-17.619,18.273,12.643,1
7.547721,-1.4323312,6.576872,-0.0143553335,0.0143553335,-0.017104227,-17.619,18.273,12.643,1
7.5082164,-1.4173675,6.528988,0.008246681,0.009468411,-0.043066,-17.619,17.965,12.643,1
7.560889,-1.453879,6.558317,-0.01863139,0.00580322,-0.019242255,-17.619,17.965,12.643,1
7.49445,-1.4335283,6.5631056,-0.023518313,0.011911872,-0.021991149,-17.962,17.965,12.643,1
7.502231,-1.4933833,6.498462,0.003970624,0.026267206,-0.028710667,-17.962,17.965,12.643,1
7.517793,-1.4891934,6.534375,-0.004581489,0.008552114,-0.029626964,-17.254,17.965,12.643,1
7.5004354,-1.4760253,6.5906386,-0.0061086523,0.01038471,-0.023823744,-16.583,17.965,12.643,1
7.541735,-1.4383167,6.5631056,-0.01160644,-0.0143553335,-0.032375857,-16.583,17.965,12.643,1
7.513005,-1.38325,6.471527,0.013744468,0.028099801,-0.04886922,-16.583,17.965,12.643,1
7.4992385,-1.3988123,6.465542,-0.04062254,-0.09590584,-0.030848695,-16.583,17.965,12.643,1
7.9750857,-1.70946,6.3362546,0.021380283,-0.13103059,-0.108123146,-16.583,17.965,12.643,1
7.5112095,-1.501763,6.066907,0.051618114,-0.029932396,-0.11789699,-16.583,17.965,12.643,1
7.717709,-1.4808137,6.029797,-0.28405234,0.64904433,0.06078109,-16.896,17.965,12.95,1
7.717709,-1.7256209,7.195773,0.18509217,0.37965274,-0.035430185,-16.896,17.965,12.602,1
7.077859,-1.2886791,7.0730705,-0.025350908,0.04184427,-0.024129177,-16.896,17.965,12.246,1
7.4070616,-1.5263035,6.657676,-0.05955936,-0.046120327,-0.021380283,-16.896,17.965,11.927,1
7.2951326,-1.6597804,6.7330937,-0.11178834,0.16187929,0.0030543262,-16.896,18.266,11.927,1
7.3765354,-1.6651673,6.831256,-0.029932396,-0.09132435,-0.0106901415,-16.896,18.601,12.232,1
7.289147,-1.6472107,6.5481415,-0.019242255,-0.035124753,-0.041233405,-17.201,18.902,12.232,1
7.3789296,-1.5682021,6.706159,0.008246681,-0.044593163,-0.03604105,-17.532,18.902,12.232,1
7.3867106,-1.763928,6.7923503,-0.03573562,-0.03145956,-0.03359759,-17.532,18.902,12.232,1
7.3867106,-1.7178397,6.627749,0.03145956,-0.008857546,-0.037873644,-17.207,18.902,12.232,1
7.436989,-1.6525977,6.628946,0.014660766,-0.04734206,-0.030848695,-17.207,18.902,12.561,1
7.377134,-1.6813282,6.554127,0.037873644,-0.026572637,-0.038789943,-17.88,18.902,12.561,1
7.4788876,-1.6729485,6.637326,-0.0018325958,-0.016798794,-0.01160644,-17.88,18.902,12.561,1
7.49026,-1.4772224,6.5044475,0.076358154,-0.033292156,-0.051618114,-17.88,18.902,12.561,1
7.4830775,-1.5915456,6.467936,0.03848451,-0.06505715,-0.028099801,-17.88,18.902,12.87,1
7.489063,-1.4927847,6.508039,0.112704635,-0.064446285,-0.07422013,-17.88,18.902,12.87,1
7.665635,-1.1587936,6.3446345,0.027488936,-0.122783914,-0.0421497,-17.88,18.583,12.87,1
7.6770077,-1.4257472,6.4404025,-0.03023783,-0.01038471,-0.021991149,-18.211,18.583,12.87,1
7.820061,-1.6394296,6.3021374,-0.08460484,-0.06047566,-0.030543262,-18.521,18.263,12.87,1
7.801506,-1.5286977,6.293758,0.014660766,-0.12583824,-0.079107046,-18.521,18.263,12.87,1
7.8912888,-1.5705963,6.1357403,-0.040927973,-0.1133155,-0.07696902,-18.521,18.263,13.208,1
7.8930845,-1.5993267,6.013636,-0.06291912,-0.1441642,-0.03848451,-18.521,18.263,13.208,1
7.9062524,-1.483208,5.9705405,0.005497787,-0.077579886,-0.040317107,-18.85,18.263,13.529,1
7.939771,-1.4377182,6.129755,-0.004581489,0.050396383,-0.027794369,-18.85,18.263,13.88,1
7.979874,-1.5113398,6.017826,0.01038471,0.04153884,-0.03481932,-18.85,18.263,13.88,1
7.892486,-1.4927847,6.131551,0.01038471,0.09621128,-0.049480084,-18.519,18.263,13.88,1
7.888296,-1.5173253,6.173449,-0.028099801,0.087964594,-0.03145956,-18.142,18.263,13.88,1
7.789535,-1.472434,6.1411276,-0.0036651916,0.04153884,-0.03573562,-17.796,18.263,13.566,1
7.8410106,-1.520318,6.215348,-0.0033597588,0.06719518,-0.03390302,-17.485,18.263,13.566,1
7.7907324,-1.4377182,6.1542954,-0.010995574,0.04337143,-0.028405234,-17.485,18.263,13.566,1
7.793725,-1.4862007,6.217742,-0.028710667,0.024740042,-0.018325957,-17.485,18.263,13.566,1
7.7320743,-1.6334441,6.037578,-0.04062254,0.049480084,-0.034208454,-17.485,18.263,13.566,1
7.7428484,-1.5263035,6.295553,-0.06811147,0.063224554,-0.018325957,-17.485,18.263,13.566,1
7.7943234,-1.6023195,6.4643445,-0.011301007,0.106595986,-0.04184427,-17.485,18.263,13.566,1
7.6626425,-1.6645688,6.2985463,0.032070424,0.042455133,-0.054061573,-17.485,18.263,13.566,1
7.675212,-1.4550761,6.4122705,0.07880162,0.105374254,-0.048258353,-17.813,18.565,13.566,1
7.6255326,-1.5616181,6.477513,-0.0290161,0.12583824,-0.0143553335,-18.13,18.565,13.25,1
7.4764934,-1.4999673,6.6666546,0.08582657,0.17287487,-0.024129177,-18.13,18.565,12.895,1
7.4046674,-1.4867992,6.595427,0.006414085,0.02565634,-0.028099801,-17.802,18.565,12.895,1
7.410054,-1.4879963,6.5864487,0.028099801,0.045814894,-0.03848451,-18.138,18.565,12.58,1
7.3873096,-1.4610616,6.688801,-0.016493361,0.12583824,-0.025350908,-18.138,18.565,12.58,1
7.2927384,-1.4826094,6.8132997,-0.011911872,0.08246681,-0.027794369,-18.138,18.565,12.58,1
7.3579803,-1.4694413,6.8665705,0.011911872,0.027488936,-0.004581489,-18.138,18.565,12.58,1
7.245453,-1.423353,6.7534447,-0.016187929,-0.013744468,0.013439035,-18.138,18.565,12.58,1
7.2670007,-1.8614918,6.513426,-0.03604105,-0.019547688,0.017104227,-18.138,18.885,12.58,1
7.28795,-1.7310078,6.8001313,0.009162978,0.07238753,-0.019242255,-17.805,18.885,12.58,1
7.313089,-1.5987282,6.823475,-0.03756821,0.024740042,-0.01863139,-17.805,18.885,12.58,1
7.265804,-1.678934,6.795343,0.0036651916,-0.056505036,-0.02107485,-17.805,18.885,12.58,1
7.3322425,-1.6454151,6.715736,0.005497787,-0.06261369,-0.021991149,-17.497,19.2,12.58,1
7.394492,-1.654992,6.6504936,-0.032070424,-0.03756821,-0.029626964,-17.196,19.2,12.58,1
7.3525934,-1.702876,6.5990186,0.022907447,-0.0143553335,-0.05009095,-17.196,19.2,12.58,1
7.3938932,-1.6729485,6.611588,0.035430185,0.009162978,-0.032986723,-17.527,19.2,12.58,1
7.417835,-1.6340426,6.621165,0.011911872,0.018936822,-0.03359759,-17.828,19.2,12.58,1
7.36636,-1.6484078,6.55293,0.0036651916,0.0070249503,-0.032986723,-18.205,19.2,12.58,1
7.397485,-1.6675615,6.671443,0.01985312,-0.013439035,-0.03359759,-17.878,19.2,12.58,1
7.3430166,-1.666963,6.6307416,-0.012217305,0.00030543262,-0.03359759,-17.526,19.2,12.58,1
7.423821,-1.6172832,6.559514,-0.015882496,-0.020463986,-0.02107485,-17.526,19.2,12.58,1
7.405266,-1.6591818,6.633136,0.005497787,-0.0033597588,-0.03359759,-17.895,19.2,12.58,1
7.373543,-1.5885528,6.59004,0.011911872,0.017715093,-0.03176499,-17.573,19.2,12.58,1
7.422025,-1.5849615,6.6989765,-0.016493361,0.005192355,-0.022907447,-17.573,19.2,12.58,1
7.427412,-1.6106992,6.727108,-0.020463986,0.016493361,-0.033292156,-17.573,18.887,12.58,1
7.390302,-1.6711528,6.6145806,0.0009162979,-0.0070249503,-0.027488936,-17.573,18.887,12.58,1
7.382521,-1.6454151,6.658275,0.0021380284,0.010079277,-0.03023783,-17.265,18.887,12.58,1
7.380127,-1.6729485,6.623559,-0.0143553335,0.0021380284,-0.020158553,-17.265,18.887,12.58,1
7.3992805,-1.6370354,6.6983776,0.01160644,0.01282817,-0.029321533,-17.265,18.887,12.58,1
7.3567834,-1.6537948,6.600814,-0.002443461,0.015271631,-0.034208454,-16.928,18.887,12.58,1
7.4190326,-1.6406267,6.643311,0.0067195175,-0.00061086525,-0.025045475,-16.928,18.887,12.58,1
7.3645644,-1.6208745,6.6415157,0.020463986,0.004886922,-0.028405234,-17.257,18.887,12.58,1
7.405266,-1.6783354,6.623559,-0.0061086523,0.0021380284,-0.018020526,-17.257,18.887,12.58,1
7.414244,-1.6256629,6.655282,0.00061086525,-0.010079277,-0.032070424,-17.257,18.887,12.58,1
7.471705,-1.6944963,6.658275,0.0067195175,-0.0106901415,-0.021685716,-17.257,18.887,12.58,1
7.363966,-1.638831,6.571485,-0.008857546,-0.03726278,-0.026267206,-17.257,18.887,12.58,1
7.483676,-1.6304513,6.545149,-0.03145956,-0.032986723,-0.031154128,-17.257,18.887,12.58,1
7.433996,-1.6741456,6.5002575,0.0027488936,-0.013744468,-0.052534413,-17.257,18.887,12.889,1
7.465121,-1.666963,6.489484,-0.03145956,-0.0070249503,-0.040927973,-17.573,18.887,12.889,1
7.429208,-1.6400281,6.56131,-0.022907447,-0.027183503,0.012217305,-17.915,18.887,13.208,1
7.517793,-1.8375498,6.571485,-0.05222898,0.046731193,-0.016798794,-17.915,19.198,13.208,1
7.453748,-1.7345991,6.439804,0.004581489,0.03481932,-0.0290161,-17.57,19.198,13.208,1
7.4962454,-1.8698715,6.625953,0.06169739,0.09590584,-0.05009095,-17.57,19.198,13.208,1
7.3645644,-1.6861166,6.4577603,0.021991149,0.108123146,-0.032375857,-17.57,19.198,13.208,1
7.4106526,-1.6190789,6.7372837,0.049480084,0.061391957,-0.04184427,-17.887,19.198,13.208,1
7.3507977,-1.6950948,6.6732388,-0.008246681,0.054367006,-0.04550946,-18.203,19.198,13.208,1
7.409456,-1.7064673,6.7103486,0.007330383,0.05009095,-0.021685716,-17.901,19.198,12.886,1
7.316082,-1.6190789,6.75943,-0.010079277,0.10842858,-0.018325957,-17.591,19.198,12.521,1
7.2268977,-1.6286557,6.8839283,-0.05375614,0.12797627,0.021380283,-17.591,19.198,12.521,1
7.28376,-1.6717514,6.9006877,0.0125227375,-0.04734206,-0.010995574,-17.277,19.198,12.521,1
7.2502413,-1.821389,6.761824,-0.045814894,-0.01038471,-0.038789943,-16.964,19.198,12.521,1
7.301717,-1.9273324,6.915053,-0.12614368,0.032986723,-0.01740966,-16.964,19.502,12.521,1
7.2023573,-1.6537948,6.5391636,0.103847094,-0.10995574,-0.087659165,-17.266,19.502,12.521,1
7.511808,-1.8261774,6.779781,0.007330383,-0.1328632,-0.08002335,-17.61,19.502,12.521,1
7.519589,-1.7776948,6.6026096,-0.009162978,0.02565634,-0.0729984,-17.61,19.502,12.521,1
7.4351935,-1.7621324,6.6295447,0.0076358155,0.010995574,-0.0290161,-17.929,19.502,12.841,1
7.4962454,-1.5915456,6.577471,0.14446963,-0.03176499,-0.07544186,-17.929,19.502,12.841,1
7.391499,-1.4736311,6.5858502,0.093767814,0.057726767,-0.05222898,-17.929,19.181,12.841,1
7.5590935,-1.4580688,6.7905545,0.03176499,-0.08246681,-0.043676864,-17.929,18.869,12.841,1
7.5070195,-1.4053963,6.5361705,0.011911872,-0.16126843,-0.02107485,-18.24,18.869,12.528,1
7.5985975,-1.501763,6.326678,0.0290161,-0.18600847,-0.04550946,-18.664,18.869,12.846,1
7.617751,-1.3838485,6.223129,-0.034513887,-0.06780604,-0.022602014,-19.335,18.869,12.846,1
7.7703815,-1.3670892,6.365584,-0.007941248,-0.042760566,-0.029932396,-19.335,18.869,12.846,1
7.754221,-1.5197195,6.1638722,0.020158553,-0.009162978,-0.032070424,-19.335,18.566,12.846,1
7.712322,-1.5370775,6.295553,0.06719518,0.1469131,-0.022602014,-19.335,18.566,13.177,1
7.543531,-1.4101849,6.55293,0.093767814,0.18234327,-0.005192355,-18.986,18.566,13.177,1
7.563283,-1.2892777,6.4870896,0.06566802,0.122478485,-0.054061573,-18.611,18.566,12.861,1
7.4465656,-1.4401124,6.7630215,0.084910266,0.13530666,-0.032070424,-17.938,18.247,12.55,1
7.3938932,-1.4586674,6.75524,0.076052725,0.08155051,-0.020158553,-17.938,18.247,12.55,1
7.429806,-1.2204443,6.725911,0.01282817,0.09010262,-0.011301007,-17.938,18.247,12.237,1
7.7069354,-1.4891934,6.7624226,0.0580322,0.04153884,-0.018936822,-17.938,18.247,11.93,1
7.280169,-1.2270284,6.655881,-0.00061086525,-0.0852157,-0.01160644,-17.938,18.247,11.93,1
7.4202294,-1.335366,6.7384806,-0.008552114,-0.22174409,-0.014049901,-17.938,18.247,11.93,1
7.6051817,-1.2282255,6.3045316,-0.03023783,-0.14019357,-0.03940081,-18.597,18.247,12.231,1
7.5746555,-1.3976152,6.555923,0.12583824,-0.08979719,-0.086132,-18.597,18.247,12.545,1
7.6135616,-1.2228385,6.52001,0.17623462,-0.10781772,-0.1020145,-18.597,17.941,12.87,1
7.7027454,-1.0121487,6.3488245,0.05681047,-0.106901415,-0.052839845,-18.597,17.572,12.87,1
7.756615,-0.7858967,6.3589997,0.124005646,-0.03634648,-0.008857546,-18.925,17.253,12.87,1
7.714118,-0.9487024,6.3105173,0.0720821,-0.004581489,-0.04795292,-18.925,16.931,12.87,1
7.792528,-0.84814596,6.302736,0.09743301,0.0030543262,-0.06261369,-18.925,16.931,12.87,1
7.7344685,-0.8631097,6.413468,0.09590584,-0.0125227375,-0.03726278,-19.247,16.625,12.551,1
7.795521,-0.7020996,6.168062,-0.04734206,0.043676864,-0.02107485,-19.247,16.625,12.551,1
7.6560583,-0.89902276,6.4242415,-0.16982053,0.23182335,0.048258353,-19.247,16.311,12.551,1
7.6728177,-1.062427,6.909666,0.0061086523,0.25625798,-0.0027488936,-18.94,16.311,12.232,1
7.4776907,-0.98222125,6.671443,-0.039095376,0.047647487,-0.03756821,-18.635,16.616,11.921,1
7.406463,-0.78888947,6.6486983,-0.047036625,0.13255776,-0.06169739,-18.635,16.932,11.921,1
7.415441,-1.0133458,6.8085113,-0.053450707,0.022907447,-0.036957346,-18.635,16.932,11.921,1
7.418434,-1.0378864,6.715137,-0.077579886,0.11575896,-0.01985312,-18.635,16.932,11.921,1
7.3352356,-1.1552023,6.8809357,0.023823744,0.02443461,-0.013133603,-18.29,17.237,11.921,1
7.3106947,-1.0965444,6.807314,-0.043982297,0.01038471,-0.025045475,-17.953,17.237,11.921,1
7.3466077,-1.1534066,6.853402,-0.045814894,-0.076358154,-0.04184427,-17.953,17.237,11.921,1
7.349002,-1.049259,6.7761893,-0.026572637,-0.030848695,-0.044593163,-17.645,17.237,11.921,1
7.3484035,-1.0348936,6.7013707,-0.0021380284,0.004276057,-0.040317107,-17.645,17.539,11.921,1
7.4226236,-1.1522095,6.785766,0.015882496,0.014049901,-0.03481932,-17.645,17.539,11.921,1
7.377134,-1.09834,6.7719994,-0.00030543262,0.013439035,-0.029626964,-17.645,17.539,11.921,1
7.378331,-1.1282675,6.735488,0.016493361,0.03023783,-0.029626964,-18.281,17.539,11.921,1
7.371747,-1.1575965,6.7600284,0.0033597588,0.03604105,-0.027488936,-18.281,17.539,11.921,1
7.441179,-1.0648212,6.8049197,0.02321288,-0.03390302,-0.043676864,-17.555,17.225,11.921,1
7.4046674,-1.0953473,6.633136,0.002443461,-0.05589417,-0.029932396,-16.941,17.225,11.921,1
7.5243773,-1.1258733,6.737882,0.034208454,-0.087964594,-0.032375857,-16.941,17.225,11.921,1
7.5088153,-1.0372878,6.5882444,0.0143553335,-0.0143553335,-0.023518313,-17.285,17.225,11.921,1
7.5566993,-0.93254155,6.553529,-0.0720821,-0.008246681,-0.018325957,-17.59,17.225,11.921,1
7.4687123,-1.4550761,6.70556,0.27122417,-0.22968534,-0.046120327,-17.59,17.225,11.921,1
7.639898,-0.89184016,6.3165026,0.21899518,-0.18692477,-0.056505036,-17.89,16.912,12.228,1
7.854179,-0.7781156,6.467936,0.30573806,-0.19456059,-0.04520403,-18.994,16.566,12.545,1
7.587824,-0.39983168,5.758055,0.2666427,0.15302174,-0.108123146,-19.738,15.884,12.545,1
8.008006,-0.20829555,6.6726403,0.110872045,0.04917465,-0.14844026,-19.738,15.237,12.545,1
7.665635,-0.33399114,6.367379,-0.09254608,0.22937989,-0.03970624,-18.659,14.581,12.24,1
7.6650367,-0.40102878,6.5948286,-0.18448131,0.10048734,-0.028710667,-17.935,14.581,11.86,1
7.716512,-0.43873745,6.615179,-0.16615535,0.06811147,-0.01160644,-17.623,14.581,11.86,1
7.7009497,-0.54288524,6.6187706,-0.17104226,0.009773844,0.035430185,-17.623,15.211,11.86,1
7.6800003,-0.5907693,6.5577183,-0.110872045,-0.06658431,0.036957346,-17.623,15.53,11.86,1
7.5602903,-0.86131406,6.4721255,-0.024129177,0.0018325958,-0.02565634,-17.623,15.837,11.86,1
7.581838,-0.8714894,6.6247563,-0.011301007,0.03573562,0.0067195175,-17.947,16.145,11.86,1
7.5016327,-0.8750807,6.6606693,-0.05589417,0.017104227,-0.003970624,-18.269,16.145,12.176,1
7.7290816,-0.89543146,6.463746,-0.080634214,-0.024740042,0.015577064,-17.959,16.145,12.489,1
7.5333557,-1.1246762,6.3404446,0.0693332,0.06719518,0.0021380284,-17.614,16.145,12.489,1
7.6375036,-0.90620536,6.8468184,-0.11759156,0.038789943,0.05497787,-17.304,16.453,12.489,1
7.5830355,-0.8690952,6.4481835,-0.10720685,0.076052725,0.039095376,-17.304,16.453,12.489,1
7.469909,-1.3802572,6.6241574,-0.01863139,0.0027488936,-0.01282817,-17.304,16.795,12.489,1
7.3430166,-1.1552023,6.579865,-0.058948494,0.02321288,0.032986723,-17.626,17.132,12.489,1
7.419631,-1.3443443,6.6056023,-0.03848451,-0.03390302,0.008246681,-17.626,17.439,12.161,1
7.463924,-1.3198037,6.5487404,-0.009468411,-0.004276057,-0.029932396,-17.626,17.439,12.161,1
7.483676,-1.316811,6.5840545,0.020158553,0.03359759,-0.044593163,-17.626,17.742,12.161,1
7.4872675,-1.3868413,6.6349316,0.018020526,0.00061086525,-0.03940081,-17.959,17.742,12.161,1
7.5124063,-1.2533646,6.5307837,-0.02107485,-0.008552114,-0.030543262,-17.959,17.742,12.161,1
7.505822,-1.2551602,6.5487404,0.0033597588,0.051618114,-0.04184427,-17.959,17.742,12.161,1
7.5405383,-1.2515689,6.655282,0.02076942,0.011301007,-0.04642576,-18.26,17.742,12.161,1
7.4986396,-1.2719196,6.540959,-0.0012217305,-0.009162978,-0.034513887,-18.26,17.742,12.161,1
7.5112095,-1.2557588,6.5589156,-0.007941248,-0.004276057,-0.029932396,-17.924,17.742,12.161,1
7.5686703,-1.3096284,6.646304,0.005497787,0.03023783,-0.05100725,-17.924,17.742,12.161,1
7.523779,-1.2156559,6.5391636,-0.02443461,-0.0061086523,-0.030543262,-17.924,17.742,12.161,1
7.465719,-1.2964603,6.6720414,-0.02107485,0.02107485,-0.028099801,-17.924,17.742,12.161,1
7.5285673,-1.3503298,6.633734,-0.03573562,0.014966198,-0.034208454,-17.924,17.742,12.161,1
7.5495167,-1.2282255,6.51582,-0.05100725,0.013133603,0.08307768,-17.614,17.742,12.161,1
7.460931,-1.5107412,6.6415157,-0.007330383,0.019547688,0.10781772,-17.614,17.742,12.161,1
7.503428,-1.4000094,6.570288,0.056199603,-0.015271631,0.08582657,-17.288,17.742,12.161,1
7.375937,-1.7076644,6.51582,0.20616703,0.021685716,-0.022907447,-17.288,18.075,12.161,1
7.4244194,-1.4532804,6.6103907,0.01160644,0.099265605,-0.064446285,-17.288,18.075,12.161,1
7.5213847,-1.5765818,6.625355,0.12034045,-0.17256944,-0.15057829,-17.602,18.075,12.161,1
7.345411,-1.2617443,6.3542113,0.22143865,0.16218472,-0.24404067,-17.602,17.393,11.845,1
7.479486,-0.79966336,6.801927,-0.079107046,0.2843578,-0.14202617,-17.602,17.073,11.845,1
7.5734587,-0.8355764,6.7749925,-0.02565634,0.04795292,-0.005497787,-17.939,16.754,11.541,1
7.341221,-1.1127052,6.7983356,0.008246681,0.06658431,-0.040011674,-18.333,16.754,11.541,1
7.4070616,-1.0169371,6.8504095,-0.0125227375,0.05589417,-0.04428773,-18.333,16.754,11.541,1
7.49445,-1.0360907,7.021595,0.0870483,-0.21013765,-0.052839845,-18.333,16.754,11.541,1
7.48607,-0.66139823,6.2392898,-0.094989546,0.064751714,-0.050701816,-18.333,16.754,11.541,1
7.5285673,-1.1510124,6.9545574,-0.026572637,-0.012217305,-0.03176499,-18.65,16.754,11.541,1
7.4447703,-1.0450691,6.7253127,0.008857546,0.011911872,-0.05681047,-18.65,16.754,11.868,1
7.5004354,-0.9415198,6.601413,0.008246681,-0.01038471,-0.034208454,-18.309,16.754,11.868,1
7.5052238,-1.0803835,6.7205243,0.02076942,-0.04062254,-0.03634648,-17.979,16.754,11.868,1
7.5004354,-0.9259575,6.5577183,0.04642576,-0.03756821,-0.05497787,-17.979,16.754,11.868,1
7.518392,-1.0121487,6.555923,0.086437434,-0.02687807,-0.063224554,-18.284,16.754,11.868,1
7.6015906,-0.6015432,6.56131,0.09682214,-0.095294975,-0.089186326,-18.284,16.45,12.191,1
7.5345526,-0.5494693,6.6403184,-0.32406402,0.060170226,0.040011674,-18.284,16.45,12.191,1
7.4687123,-1.234211,6.5481415,-0.09010262,0.0125227375,-0.035430185,-18.284,16.45,12.191,1
7.36636,-0.95468795,6.505046,-0.07880162,0.05497787,-0.0143553335,-18.284,16.758,12.191,1
7.53575,-1.0576386,6.881534,0.03940081,0.04550946,-0.05222898,-18.614,16.758,12.191,1
7.463325,-1.0235212,6.5864487,-0.028710667,0.009162978,-0.0018325958,-18.614,17.071,12.191,1
7.462128,-1.2360066,6.7109475,0.032375857,0.15454891,-0.03970624,-18.22,17.071,11.875,1
7.4088573,-1.0588357,6.761824,0.025961773,0.4343252,-0.0061086523,-17.886,17.071,11.875,1
7.2807674,-0.9552865,7.237672,-0.02565634,0.25167647,0.10567969,-17.21,17.071,11.576,1
7.0251865,-1.1671734,7.165846,-0.021380283,0.01740966,0.022602014,-16.857,17.071,10.939,1
6.994062,-1.1761516,7.0024414,-0.016798794,0.09682214,0.004886922,-16.516,17.372,10.939,1
6.8887167,-1.2850877,7.0724716,-0.06261369,0.0888809,-0.008552114,-16.516,17.372,10.939,1
6.943185,-1.3090298,7.0862384,-0.047036625,-0.067500606,-0.040317107,-16.156,17.686,10.939,1
7.0245876,-1.448492,7.111976,0.09773844,-0.528093,-0.09193522,-16.156,17.686,10.939,1
7.2298903,-1.2599486,6.6666546,0.08307768,-0.2602286,-0.07391469,-16.81,17.686,11.268,1
7.5710645,-1.086369,6.6606693,0.110872045,-0.17989981,-0.09773844,-17.834,17.686,11.987,1
7.61835,-0.8343793,6.3787518,0.0711658,-0.062308256,-0.06261369,-18.215,17.382,11.987,1
7.7147164,-0.7966706,6.5684924,0.00580322,-0.14172074,-0.06963864,-18.531,17.065,12.342,1
7.681796,-0.8343793,6.5152216,-0.06688975,0.067500606,-0.005497787,-18.531,17.065,12.342,1
7.6452847,-1.1097125,6.432023,-0.064751714,0.0036651916,-0.0106901415,-18.531,16.755,12.661,1
7.52737,-1.0390835,6.2781954,-0.17531833,0.17592919,0.01038471,-18.531,17.065,12.661,1
7.579444,-1.1294646,6.941389,-0.03634648,0.44593164,-0.006414085,-18.841,17.379,12.661,1
7.426215,-1.283292,6.9844847,-0.11026118,0.15851954,0.029626964,-18.841,17.689,12.661,1
7.234679,-1.3682863,6.8198833,-0.01282817,0.12064589,-0.0070249503,-17.861,17.689,12.048,1
7.1754227,-1.3700819,6.9808936,-0.016798794,0.071776666,0.0027488936,-17.532,18.009,12.048,1
7.133524,-1.4371196,6.931214,0.027183503,0.015577064,-0.02565634,-17.532,18.33,12.048,1
7.2089415,-1.4401124,6.9048777,0.0015271631,0.004276057,-0.030543262,-17.532,18.33,12.048,1
7.12694,-1.3964181,6.9012866,0.006414085,-0.007330383,-0.052534413,-17.532,18.33,12.048,1
7.2107368,-1.4083891,6.867169,-0.003970624,-0.014660766,-0.04062254,-17.532,18.33,11.715,1
7.277176,-1.3694834,6.950966,0.01038471,-0.105068825,-0.040011674,-17.14,18.33,11.715,1
7.2550297,-1.3904326,6.8689647,-0.0125227375,-0.070249505,-0.01740966,-17.14,18.33,11.715,1
7.294534,-1.411382,6.7570357,0.04062254,-0.014049901,-0.03756821,-17.14,18.33,11.715,1
7.281366,-1.3431472,6.769605,-0.005497787,-0.00030543262,-0.03604105,-17.14,18.33,12.033,1
7.3298483,-1.4065934,6.770204,0.016493361,0.006414085,-0.028099801,-17.14,18.028,12.033,1
7.3346367,-1.2886791,6.777985,-0.013439035,-0.01038471,-0.026267206,-17.14,18.028,12.033,1
7.306505,-1.3724761,6.827066,0.011301007,-0.0021380284,-0.028405234,-17.14,18.028,12.033,1
7.305308,-1.2976574,6.7402763,0.015271631,-0.00030543262,-0.029626964,-17.14,18.028,12.033,1
7.318476,-1.3084313,6.773795,-0.009773844,0.0021380284,-0.027794369,-17.465,18.028,12.033,1
7.3352356,-1.3078327,6.7384806,0.007330383,0.009773844,-0.039095376,-17.465,18.028,12.033,1
7.3448124,-1.3251907,6.7845693,0.012217305,0.009468411,-0.03023783,-17.465,18.028,12.033,1
7.3100963,-1.2886791,6.8210807,0.00030543262,-0.004581489,-0.028710667,-17.465,18.028,12.033,1
7.347805,-1.3239936,6.791752,0.013133603,0.010079277,-0.031154128,-17.465,18.028,12.033,1
7.349601,-1.2916719,6.7283053,0.009773844,-0.008246681,-0.029626964,-17.465,18.028,12.033,1
7.361572,-1.3012487,6.809708,0.010079277,-0.016493361,-0.03940081,-17.161,17.706,12.033,1
7.325659,-1.3144168,6.6349316,-0.004886922,0.02107485,-0.03726278,-17.161,17.706,12.033,1
7.381324,-1.2575544,6.743868,0.00580322,-0.016187929,-0.040011674,-17.517,17.706,12.033,1
7.375937,-1.2982559,6.7241154,-0.0076358155,-0.06688975,-0.057726767,-17.823,17.706,12.345,1
7.307702,-1.359308,6.537368,0.03145956,-0.25717425,-0.1133155,-17.823,17.706,12.345,1
7.357382,-1.0935516,6.411672,0.022602014,0.13836098,-0.13439035,-17.823,17.706,12.345,1
7.69257,-1.027711,7.0622964,0.11026118,-0.08307768,-0.06811147,-18.133,17.378,12.345,1
7.4603324,-0.93014735,6.4218473,0.040317107,0.18570304,-0.058643065,-17.831,17.057,12.345,1
7.4705076,-0.8451532,6.8264675,-0.04062254,0.03268129,-0.055588737,-17.182,16.755,12.345,1
7.542334,-1.1522095,6.9719152,0.014966198,-0.016187929,-0.03940081,-17.182,16.755,12.345,1
7.4776907,-1.0696096,6.637924,-0.025045475,0.00061086525,-0.022907447,-17.486,16.755,12.043,1
7.4627266,-0.997185,6.5960255,0.0030543262,0.018936822,-0.026267206,-18.142,16.755,12.043,1
7.501034,-1.0546459,6.7205243,-0.039095376,0.056199603,-0.013133603,-18.528,17.091,12.043,1
7.361572,-1.0121487,6.651691,-0.057726767,0.17165314,-0.039095376,-18.501,17.091,12.043,1
7.4088573,-1.0791864,6.8222775,0.01863139,0.124005646,0.0143553335,-18.154,17.091,12.043,1
7.3286514,-1.2312182,6.997653,0.063224554,0.0888809,0.0067195175,-18.154,17.091,12.043,1
7.328053,-1.1043255,6.96174,0.04520403,0.05681047,-0.016493361,-17.852,17.091,11.741,1
7.2113357,-0.9576807,6.933608,-0.05681047,0.116980694,-0.005192355,-17.53,17.091,11.741,1
7.1664443,-1.146224,7.026982,-0.0290161,0.106595986,0.01038471,-17.53,17.436,11.412,1
7.101202,-1.3198037,6.994062,-0.02107485,0.098043874,0.025350908,-17.225,17.749,11.412,1
7.0706763,-1.4311341,7.0605006,-0.022602014,0.07147124,0.020158553,-16.894,17.749,11.412,1
7.0371575,-1.4065934,7.059902,-0.021991149,0.008552114,0.006414085,-16.571,18.052,11.068,1
7.026982,-1.4012065,7.007828,0.0036651916,0.008552114,-0.02076942,-16.571,18.052,11.068,1
7.0700774,-1.3335704,7.1083846,-0.017715093,-0.095294975,-0.050396383,-16.96,18.052,11.068,1
7.061698,-1.4215573,7.013814,0.0143553335,-0.06566802,-0.05100725,-17.602,18.052,11.068,1
7.1502833,-1.4047978,7.0425444,0.03970624,-0.11056661,-0.06872234,-17.903,18.052,11.39,1
7.1939774,-1.2395979,6.8222775,-0.005497787,-0.014049901,-0.038179077,-17.564,18.052,11.39,1
7.2167225,-1.3700819,6.9545574,0.011911872,-0.027183503,-0.059253927,-16.931,18.052,11.39,1
7.235876,-1.2808979,6.9108634,0.0125227375,-0.027488936,-0.04520403,-16.931,18.052,11.39,1
7.2370734,-1.2515689,6.938995,0.029626964,0.018936822,-0.032986723,-16.931,18.052,11.39,1
7.2490444,-1.2066777,6.8563952,0.016493361,-0.018936822,-0.052534413,-16.931,18.052,11.698,1
7.2149267,-1.2515689,6.9078703,0.0067195175,-0.01985312,-0.05497787,-17.306,18.052,11.698,1
7.3202715,-1.1815386,6.87914,0.014966198,-0.034208454,-0.047036625,-17.306,17.732,11.698,1
7.240066,-1.1336545,6.7803793,-0.0036651916,-0.00580322,-0.051618114,-17.306,17.732,11.698,1
7.2849574,-1.158195,6.83365,0.020158553,0.016187929,-0.041233405,-17.306,17.43,11.698,1
7.323863,-1.1043255,6.8402343,0.0009162979,0.025350908,-0.032986723,-17.625,17.43,12.028,1
7.313688,-1.1821371,6.8438253,0.023823744,0.015577064,-0.03726278,-18.62,17.43,12.38,1
7.311892,-1.1791444,6.8324533,0.014966198,0.025350908,-0.024740042,-18.62,17.43,12.38,1
7.299921,-1.0690111,6.8240733,-0.027183503,0.02565634,-0.027183503,-18.299,17.43,12.38,1
7.2861543,-1.1390414,6.884527,0.0015271631,0.01160644,-0.02076942,-17.985,17.43,12.057,1
7.314286,-1.1456255,6.806117,0.016187929,0.024129177,-0.03359759,-17.271,17.43,11.701,1
7.294534,-1.1109096,6.903681,-0.021991149,0.017104227,-0.017715093,-16.97,17.43,11.701,1
7.301118,-1.1366472,6.921637,-0.002443461,0.007330383,-0.035430185,-16.97,17.43,11.701,1
7.280169,-1.1486182,6.847417,-0.0030543262,0.018020526,-0.028099801,-17.602,17.43,11.701,1
7.2711906,-1.13964,6.9006877,-0.005192355,0.012217305,-0.028099801,-17.602,17.43,12.005,1
7.2388687,-1.2030864,6.8982935,-0.007330383,0.008246681,-0.019242255,-17.271,17.43,12.005,1
7.27957,-1.168969,6.853402,-0.0030543262,0.0030543262,-0.027183503,-16.94,17.43,12.005,1
7.306505,-1.1306617,6.9126587,-0.00580322,0.0027488936,-0.021991149,-16.94,17.43,12.005,1
7.2580223,-1.1492168,6.8839283,-0.015577064,0.0106901415,-0.027794369,-16.94,17.43,12.005,1
7.2861543,-1.1198878,6.9366007,-0.0009162979,0.0067195175,-0.03176499,-17.279,17.43,12.005,1
7.269395,-1.1282675,6.8468184,0.005497787,0.010079277,-0.022907447,-17.279,17.43,12.005,1
7.309498,-1.163582,6.949769,-0.00580322,-0.0018325958,-0.028099801,-17.279,17.43,12.005,1
7.2628107,-1.1641805,6.865972,-0.004276057,0.00580322,-0.034208454,-17.279,17.43,12.005,1
7.271789,-1.1839328,6.9366007,0.0030543262,-0.01282817,-0.020463986,-16.973,17.43,11.668,1
7.2622123,-1.1719618,6.7959414,-0.00061086525,0.004276057,-0.03390302,-16.653,17.43,11.668,1
7.2849574,-1.1563994,6.893505,-0.011911872,-0.01160644,-0.028099801,-16.299,17.43,11.668,1
7.2807674,-1.2653356,6.8252707,0.009468411,0.008246681,-0.022296581,-15.96,17.43,11.668,1
7.3352356,-1.1887212,6.8605847,0.0015271631,-0.0143553335,-0.032986723,-15.96,17.43,11.668,1
7.3059063,-1.2036849,6.827665,0.01038471,-0.0061086523,-0.035430185,-15.96,17.43,11.668,1
7.303512,-1.1869255,6.7809777,-0.0106901415,-0.009468411,-0.0290161,-15.96,17.43,11.668,1
7.369353,-1.1851299,6.9078703,-0.0012217305,-0.00580322,-0.03726278,-15.96,17.43,11.668,1
7.337031,-1.1563994,6.8222775,0.004886922,-0.009468411,-0.0421497,-15.96,17.43,11.668,1
7.323863,-1.1761516,6.7187285,0.0125227375,0.0143553335,-0.038789943,-15.96,17.43,11.668,1
7.3484035,-1.1935096,6.745663,-0.004581489,0.0027488936,-0.03145956,-16.305,17.43,11.668,1
7.3609734,-1.1839328,6.84203,0.0009162979,-0.013439035,-0.027183503,-16.639,17.43,11.668,1
7.3699512,-1.1713632,6.6630635,-0.018936822,0.00580322,-0.029626964,-16.639,17.43,11.668,1
7.349601,-1.1821371,6.8222775,0.006414085,-0.022602014,-0.029626964,-16.639,17.43,11.668,1
7.391499,-1.1522095,6.743868,0.0070249503,-0.01985312,-0.042760566,-16.293,17.43,11.668,1
7.309498,-1.2725182,6.5601125,0.01985312,-0.034513887,-0.043676864,-16.293,17.126,11.668,1
7.3950906,-1.0360907,6.5230026,-0.05009095,0.006414085,-0.015882496,-16.293,17.126,11.668,1
7.5908165,-1.2312182,6.9360023,-0.013133603,0.049785517,-0.005192355,-16.601,17.126,11.668,1
7.455544,-1.1893197,6.7690067,0.01160644,0.036957346,-0.03848451,-16.601,17.126,11.668,1
7.3986816,-1.1186907,6.7546415,0.05131268,-0.0106901415,-0.040011674,-16.601,17.126,11.668,1
7.330447,-1.0193313,6.4948707,-0.07147124,0.08827003,-0.012217305,-16.601,17.126,11.668,1
7.359776,-1.1282675,6.817489,-0.06688975,0.081855945,-0.021991149,-16.601,17.126,11.668,1
7.3202715,-1.1959038,6.8905125,-0.04062254,0.023823744,-0.02076942,-16.601,17.437,11.668,1
7.273585,-1.3311762,6.8144965,-0.059864793,0.036957346,-0.01740966,-16.601,17.437,11.668,1
7.264008,-1.2785037,6.9006877,-0.004581489,0.016798794,-0.020463986,-16.601,17.747,11.668,1
7.270592,-1.2808979,6.8121023,-0.0033597588,0.04520403,-0.015882496,-17.28,18.051,11.668,1
7.3029137,-1.2826935,6.9144545,-0.014049901,0.037873644,-0.0290161,-17.28,18.051,11.668,1
7.1909847,-1.3204023,6.923433,-0.005497787,0.05100725,-0.021685716,-17.28,18.051,11.668,1
7.2388687,-1.3054385,6.901885,0.011301007,0.04886922,-0.021380283,-17.28,18.051,11.668,1
7.180211,-1.3186066,6.8599863,-0.03604105,0.047647487,-0.014049901,-16.926,18.051,11.668,1
7.192182,-1.3395559,7.0646906,-0.0030543262,0.009162978,-0.024129177,-16.926,18.051,11.668,1
7.153875,-1.3299791,6.973711,-0.004886922,0.002443461,-0.031154128,-16.926,18.051,11.668,1
7.150882,-1.3461399,6.971317,0.007330383,0.004581489,-0.034513887,-16.926,18.051,11.668,1
7.1939774,-1.4024036,6.906075,-0.01282817,0.011911872,-0.024129177,-16.926,18.051,11.668,1
7.1604586,-1.34195,6.9425864,0.014966198,0.010079277,-0.02565634,-16.926,18.051,11.668,1
7.167641,-1.3030443,6.91625,-0.015882496,0.008246681,-0.03268129,-16.926,18.051,11.668,1
7.16824,-1.359308,6.969521,-0.014049901,0.0076358155,-0.01863139,-16.926,18.051,11.668,1
7.1987658,-1.3479356,6.9767036,0.005192355,0.014966198,-0.030848695,-16.926,18.051,11.668,1
7.2268977,-1.3485341,6.991069,-0.009468411,0.015577064,-0.028710667,-16.598,18.051,11.668,1
7.192182,-1.3634979,7.0425444,0.0125227375,-0.0030543262,-0.022296581,-16.598,18.051,11.668,1
7.167641,-1.2838906,6.945579,-0.01985312,0.018325957,-0.023518313,-16.598,18.051,11.668,1
7.1634517,-1.4024036,6.997653,0.047036625,0.108123146,0.0021380284,-16.902,18.051,11.668,1
7.1383123,-1.2659341,7.08564,0.0009162979,0.05100725,0.016493361,-16.902,18.051,11.668,1
7.049727,-1.365892,7.125743,0.027488936,-0.0070249503,-0.012217305,-16.902,18.051,11.668,1
7.0515227,-1.4784195,7.04015,0.008857546,0.01160644,0.0012217305,-16.902,18.051,11.366,1
7.1065893,-1.2862848,7.0491285,0.01740966,0.044593163,-0.02321288,-16.902,18.359,11.366,1
7.0209966,-1.3545196,7.0545154,-0.01863139,-0.020463986,-0.021991149,-16.902,18.359,11.366,1
7.0491285,-1.4443022,7.0587053,0.0021380284,-0.0012217305,-0.03023783,-16.902,18.359,11.366,1
7.0712748,-1.3826514,7.0090256,0.01038471,-0.03359759,-0.038789943,-16.902,18.359,11.366,1
7.0467343,-1.4317327,7.100005,0.004886922,-0.043982297,-0.029321533,-16.593,18.359,11.366,1
7.1023993,-1.3575124,6.977901,-0.02687807,-0.1020145,-0.05131268,-17.274,18.359,11.366,1
7.1688385,-1.4095862,6.906075,0.009468411,-0.029932396,-0.05222898,-17.617,18.359,11.688,1
7.2370734,-1.3670892,7.009624,0.014660766,-0.028405234,-0.030848695,-17.951,18.359,11.688,1
7.197569,-1.4269443,6.859388,0.024129177,0.008246681,-0.03145956,-17.579,18.359,11.688,1
7.2029557,-1.3485341,6.8947024,0.01985312,0.014966198,-0.02321288,-17.579,18.359,11.688,1
7.2227077,-1.3790601,6.903681,0.01160644,0.0015271631,-0.03634648,-17.277,18.359,11.688,1
7.181408,-1.42455,6.8839283,0.008552114,0.022296581,-0.029321533,-17.626,18.359,11.688,1
7.2029557,-1.3605051,6.899491,0.024129177,0.0070249503,-0.04062254,-17.626,18.359,11.688,1
7.1945763,-1.2910733,6.813898,0.0070249503,0.014049901,-0.030543262,-17.626,18.359,11.688,1
7.2191167,-1.3664906,6.979098,0.006414085,0.0106901415,-0.028099801,-17.294,18.052,11.688,1
7.2029557,-1.3150153,6.8324533,0.017104227,0.009773844,-0.022296581,-16.947,18.052,11.688,1
7.219715,-1.2773066,6.9102645,-0.00030543262,0.024129177,-0.0290161,-16.947,18.052,11.688,1
7.2322845,-1.2910733,7.019799,-0.009468411,0.0015271631,-0.0290161,-16.947,18.052,11.688,1
7.177817,-1.2916719,6.8863225,0.00061086525,0.014049901,-0.03573562,-16.947,18.052,11.688,1
7.1963716,-1.311424,6.9581485,-0.003970624,0.011301007,-0.03023783,-16.947,18.052,11.688,1
7.1981673,-1.3239936,6.8653736,-0.006414085,0.01160644,-0.025350908,-16.947,18.052,11.688,1
7.191583,-1.2545617,6.877943,0.007941248,0.00580322,-0.027794369,-16.947,18.052,11.688,1
7.1873937,-1.3383588,6.9461775,-0.014966198,-0.004886922,-0.023518313,-16.947,18.052,11.688,1
7.2221093,-1.335366,6.911462,0.0012217305,0.007330383,-0.028099801,-16.947,18.052,11.688,1
7.1844006,-1.3443443,6.937798,-0.0021380284,0.00580322,-0.019547688,-16.947,18.052,11.688,1
7.2149267,-1.3108255,6.9102645,-0.011301007,-0.00030543262,-0.03023783,-16.947,18.052,11.688,1
7.1790137,-1.3311762,6.927623,0.008246681,0.03023783,-0.035430185,-16.947,18.052,11.688,1
7.1502833,-1.3281834,6.913856,-0.014660766,-0.004276057,-0.004581489,-16.616,18.052,11.688,1
7.2233067,-1.3144168,6.938995,0.0033597588,0.014966198,-0.03756821,-16.616,18.052,11.688,1
7.201759,-1.3126211,6.919243,-0.061391957,0.03268129,-0.01863139,-16.957,18.052,11.688,1
7.0425444,-1.3563153,6.666056,-0.11484267,0.080634214,-0.03359759,-16.957,18.052,11.688,1
7.2101383,-1.4317327,7.1209545,-0.08032878,0.004581489,-0.039095376,-16.624,18.052,11.688,1
7.225701,-1.6106992,7.017405,-0.011911872,-0.050396383,-0.030848695,-16.322,18.38,11.688,1
7.1502833,-1.4993688,6.813898,-0.04337143,0.042455133,-0.06872234,-16.322,18.38,11.688,1
6.996456,-1.5209166,6.95755,-0.020463986,0.019242255,-0.060170226,-16.65,18.38,11.688,1
7.1550717,-1.5502456,7.1209545,0.005192355,-0.04062254,-0.06688975,-16.34,18.38,11.688,1
7.1287355,-1.3670892,6.7426705,0.016798794,0.1872302,-0.004886922,-16.34,18.38,11.688,1
7.241263,-1.4454993,7.2005615,-0.032375857,0.12064589,0.0061086523,-15.985,18.38,11.688,1
7.1143703,-1.4383167,7.211934,0.06811147,0.025350908,-0.00061086525,-15.985,18.38,11.688,1
7.0407486,-1.4197617,7.1167645,-0.008246681,-0.036957346,0.0076358155,-15.985,18.38,11.688,1
6.9647326,-1.4443022,7.0108213,-0.021685716,0.008246681,-0.019242255,-16.319,18.704,11.688,1
7.0371575,-1.650802,6.918046,-0.009162978,-0.004886922,-0.023518313,-16.633,18.704,11.688,1
7.064092,-1.5077485,7.0341644,-0.012217305,-0.030543262,-0.03268129,-16.633,18.704,11.688,1
7.088034,-1.5610195,7.0700774,0.0143553335,-0.067500606,-0.042455133,-16.633,18.704,11.688,1
7.091625,-1.5221137,7.138911,-0.048258353,-0.06566802,-0.032070424,-16.633,18.704,11.688,1
7.1993647,-1.5346833,6.83365,0.018325957,-0.027183503,-0.040317107,-16.94,18.704,11.688,1
7.20535,-1.5119383,6.8168907,0.029626964,-0.009162978,-0.04428773,-17.254,18.704,12.008,1
7.235876,-1.5352819,6.8929067,0.012217305,-0.0061086523,-0.03848451,-17.254,18.704,12.008,1
7.244256,-1.4287399,6.8001313,0.014660766,0.004581489,-0.035430185,-16.932,18.704,12.008,1
7.219715,-1.4933833,6.854001,0.004886922,0.0070249503,-0.029932396,-16.932,18.704,12.008,1
7.269395,-1.4945804,6.986879,0.028710667,-0.021380283,-0.044593163,-16.932,18.704,12.008,1
7.20954,-1.4634558,6.7923503,0.009468411,-0.044593163,-0.03848451,-16.932,18.704,12.008,1
7.2981253,-1.401805,6.8091097,0.014966198,-0.0021380284,-0.026267206,-16.932,18.704,12.008,1
7.314286,-1.401805,6.873753,-0.016798794,0.011911872,-0.022907447,-16.932,18.399,12.008,1
7.258621,-1.4347254,6.7983356,0.0061086523,0.013439035,-0.037873644,-16.932,18.399,12.008,1
7.3029137,-1.4203602,6.8007298,0.0070249503,0.011301007,-0.030848695,-16.932,18.399,12.008,1
7.29214,-1.4718355,6.8109055,0.019242255,0.013744468,-0.026267206,-16.932,18.399,12.373,1
7.28795,-1.4167689,6.8480153,0.021685716,-0.0067195175,-0.036957346,-16.932,18.399,12.373,1
7.2963295,-1.4460979,6.8025255,0.052839845,0.016187929,-0.04337143,-16.932,18.399,12.373,1
7.2885485,-1.3676877,6.8504095,-0.1001819,0.13683382,0.01038471,-17.315,18.096,12.373,1
7.1383123,-1.1791444,6.640917,-0.027794369,-0.025350908,0.01740966,-17.64,18.414,12.373,1
7.2753806,-1.4227544,6.8683662,0.025961773,-0.027794369,-0.027488936,-18.07,18.716,12.373,1
7.2753806,-1.4826094,6.679224,0.023823744,0.015882496,-0.025045475,-18.385,18.716,12.373,1
7.3352356,-1.5831659,7.0383544,-0.038179077,-0.01160644,-0.016187929,-18.064,18.716,12.373,1
7.2699933,-1.5113398,6.8007298,0.01282817,-0.003970624,-0.018936822,-18.064,18.716,12.373,1
7.33763,-1.4664485,6.8282633,-0.0143553335,0.034208454,-0.03023783,-17.736,18.716,12.373,1
7.229292,-1.477821,6.7121444,-0.029932396,0.13041973,-0.015577064,-17.736,18.716,12.373,1
7.253833,-1.3838485,6.6720414,0.08124508,0.17989981,0.002443461,-17.431,18.716,12.066,1
7.2221093,-1.614889,7.1742253,-0.03940081,0.05589417,0.00580322,-17.431,18.716,12.066,1
7.1395097,-1.5801731,7.0886326,-0.010995574,0.07971791,-0.0015271631,-17.431,18.716,11.741,1
6.995259,-1.6310499,6.9485717,-0.076358154,0.08979719,0.03023783,-17.129,18.716,11.741,1
7.032369,-1.5759833,7.211934,0.010995574,0.048258353,0.011301007,-17.129,19.038,11.741,1
6.956353,-1.702876,7.019799,-0.00580322,0.01740966,0.0033597588,-16.789,19.038,11.436,1
6.8970966,-1.7675194,7.052121,0.012217305,0.004276057,-0.014966198,-16.789,19.338,11.436,1
6.986879,-1.6537948,6.9892735,0.007941248,0.01863139,-0.023823744,-16.789,19.338,11.436,1
6.918046,-1.7687165,7.176021,-0.027794369,-0.06688975,-0.03573562,-16.789,19.338,11.436,1
6.932411,-1.7106571,7.113772,-0.02076942,-0.06627888,-0.00030543262,-16.484,19.338,11.436,1
7.026982,-1.816002,6.932411,0.007941248,-0.013439035,-0.036957346,-16.18,19.338,11.436,1
7.0144124,-1.7561469,7.012018,-0.02076942,0.0033597588,-0.02565634,-16.18,19.338,11.436,1
7.020398,-1.7106571,6.971317,-0.0067195175,-0.0036651916,-0.036651913,-16.18,19.338,11.436,1
7.013814,-1.7405846,6.956353,0.005192355,0.011301007,-0.025045475,-16.18,19.338,11.436,1
7.0545154,-1.757344,7.1083846,0.010995574,-0.016187929,-0.036651913,-16.18,19.338,11.436,1
7.0263834,-1.7681179,7.0700774,0.00030543262,-0.00030543262,-0.040317107,-16.488,19.338,11.436,1
7.029975,-1.697489,7.008427,-0.010995574,0.005497787,-0.037873644,-16.165,19.338,11.436,1
7.049727,-1.7106571,6.944382,-0.015271631,0.008857546,-0.021991149,-16.165,19.338,11.436,1
7.03177,-1.6903064,6.992266,-0.009468411,0.008246681,-0.036651913,-16.165,19.338,11.436,1
7.0688806,-1.7064673,7.0610995,0.046731193,0.0015271631,-0.05375614,-16.165,19.338,11.436,1
7.037756,-1.7022774,6.9820905,0.034208454,-0.008857546,-0.05009095,-16.165,19.338,11.436,1
6.996456,-1.785476,6.9144545,0.08124508,-0.13255776,-0.11636983,-16.491,19.038,11.436,1
7.0982094,-1.7256209,7.0946183,-0.07941248,-0.10995574,-0.09132435,-17.105,18.728,11.738,1
7.092224,-1.4981717,6.9342065,0.102319926,-0.119729586,-0.12308934,-17.105,18.728,11.738,1
7.1844006,-1.46585,6.806117,0.038789943,-0.17379116,-0.059864793,-17.105,18.415,12.045,1
7.3112936,-1.4239515,6.8869214,-0.022296581,-0.03268129,-0.014966198,-17.414,18.415,12.045,1
7.422025,-1.2731167,6.8545995,-0.10934488,0.10873401,0.0076358155,-17.752,18.415,12.045,1
7.4004774,-1.1785458,6.491878,-0.05589417,0.33841935,0.018936822,-17.752,18.415,12.045,1
7.3843164,-1.4077905,6.6971807,-0.06872234,0.17898351,0.101098195,-17.388,18.716,12.045,1
7.2622123,-1.5167267,7.004237,-0.06536258,0.13072516,0.084910266,-17.008,18.716,11.395,1
7.314286,-1.5735891,7.098808,-0.033292156,0.017104227,0.08093964,-16.638,19.032,11.395,1
7.1089835,-1.6633717,7.073669,-0.03176499,0.06047566,0.08552113,-16.304,19.34,11.395,1
6.9988503,-1.8273745,6.927623,-0.053145275,0.02443461,0.05589417,-16.304,19.665,11.395,1
6.959346,-1.9075803,6.9808936,-0.034513887,-0.02321288,-0.015271631,-16.304,19.998,11.395,1
6.96593,-1.9937714,7.1706343,-0.015271631,-0.08124508,-0.024129177,-16.304,19.998,11.395,1
6.927024,-2.0901382,7.0407486,0.050701816,-0.09040806,-0.040927973,-16.304,19.998,11.395,1
6.9820905,-2.15957,6.9767036,0.0125227375,-0.026267206,-0.043066,-16.304,19.998,11.395,1
7.083844,-1.9351135,6.8228765,0.013744468,0.013744468,-0.03359759,-16.304,19.998,11.395,1
7.0587053,-1.9895816,6.799533,0.0125227375,0.008857546,-0.043982297,-16.304,19.998,11.73,1
7.080253,-1.9931729,6.884527,0.045814894,0.0030543262,-0.051618114,-16.304,19.998,11.73,1
7.089231,-1.9357121,6.7827735,0.040011674,0.046731193,-0.03604105,-16.304,19.998,11.73,1
7.0461354,-1.9075803,6.935404,-0.008246681,-0.002443461,-0.03481932,-16.304,19.998,11.73,1
7.065289,-1.9081788,6.951565,-0.00030543262,-0.017104227,-0.026572637,-16.304,19.998,11.73,1
7.1347213,-1.851915,6.95336,0.12736541,-0.026267206,-0.103847094,-16.304,19.694,11.73,1
7.100005,-1.917157,6.899491,0.2501493,-0.23793201,-0.11056661,-16.304,19.386,12.115,1
6.963536,-2.107496,6.8731546,0.28802297,-0.26511553,-0.17470746,-16.624,18.778,12.115,1
7.197569,-1.8752584,6.941988,0.10354166,-0.14813483,-0.118202426,-16.989,18.409,12.115,1
7.245453,-1.4395138,6.701969,0.16523905,0.03726278,-0.1432479,-17.309,17.713,12.115,1
7.5189905,-1.0432734,6.545149,0.3827071,0.07788532,-0.15424347,-17.633,17.385,12.115,1
7.404069,-1.3078327,6.775591,-0.11362094,0.083383106,0.018020526,-17.633,16.712,12.115,1
7.4776907,-1.0851719,6.168062,-0.2434298,0.38515055,-0.049480084,-17.633,16.712,11.796,1
7.4908586,-0.3788824,6.8773446,-0.0290161,0.15577064,-0.0030543262,-17.268,16.712,11.485,1
7.1724296,-1.0067618,6.3739634,-0.09315695,0.074830994,0.00061086525,-16.941,17.028,11.485,1
7.281366,-1.3221979,7.3310456,-0.0888809,0.1554652,0.008246681,-16.941,17.344,11.164,1
7.1221514,-0.985214,7.153875,-0.1695151,0.27458394,0.055588737,-16.941,17.689,11.164,1
7.0156097,-1.2671312,7.104195,0.020158553,0.07544186,0.0009162979,-15.592,17.999,10.845,1
6.9102645,-1.4281414,7.064092,-0.032986723,-0.033292156,0.009468411,-14.828,17.999,10.845,1
6.8581905,-1.5047557,7.349601,0.05589417,-0.09896017,-0.028099801,-14.454,17.999,10.845,1
6.779182,-1.3006501,7.297527,-0.026267206,-0.02321288,-0.011911872,-14.454,17.999,10.845,1
6.773795,-1.4808137,7.2227077,0.24587326,0.038789943,-0.09743301,-14.454,17.999,10.845,1
6.8426285,-1.6705543,7.0844426,-0.10415252,-0.08002335,-0.0061086523,-14.454,17.999,10.845,1
6.8947024,-1.685518,7.1742253,-0.04734206,0.052534413,-0.03023783,-14.772,17.999,10.845,1
7.068282,-1.2144588,7.6135616,0.038789943,-0.0067195175,-0.046120327,-14.772,17.999,10.845,1
6.793547,-1.4748282,6.827665,-0.004276057,0.017104227,-0.040011674,-15.078,17.999,10.845,1
7.000047,-1.477821,7.3711486,0.07269296,-0.0290161,-0.052839845,-15.411,17.999,10.845,1
6.8444242,-1.4383167,7.1706343,-0.019242255,0.0061086523,-0.024129177,-15.771,18.305,10.845,1
6.918046,-1.4682442,7.233482,-0.016798794,0.009468411,-0.032986723,-16.088,18.305,10.845,1
6.9090676,-1.4047978,7.15567,0.0070249503,0.015271631,-0.03634648,-16.088,18.305,10.537,1
6.9210386,-1.395221,7.173627,-0.009468411,0.009162978,-0.029321533,-16.088,18.305,10.537,1
6.903082,-1.4550761,7.1592617,0.03145956,-0.0033597588,-0.044593163,-16.088,18.305,10.537,1
6.9725137,-1.3485341,7.257424,0.004886922,0.028099801,-0.034208454,-15.777,18.305,10.87,1
6.935404,-1.3934253,7.2424603,-0.025961773,0.014966198,-0.025961773,-15.777,18.305,10.87,1
6.891111,-1.389834,7.2227077,-0.02687807,0.01282817,-0.022296581,-15.777,18.002,10.87,1
6.932411,-1.3569138,7.1670427,-0.025350908,0.008246681,-0.013744468,-15.777,18.002,10.87,1
6.903082,-1.411382,7.2203135,-0.026267206,-0.008246681,-0.02321288,-15.777,18.002,10.87,1
6.8982935,-1.3515269,7.183802,-0.044593163,-0.015271631,-0.0018325958,-15.777,18.002,10.87,1
6.909666,-1.3946224,7.1981673,-0.037873644,0.021685716,-0.035430185,-15.777,18.328,10.87,1
6.92044,-1.5107412,7.1873937,-0.025045475,0.011911872,-0.034208454,-15.777,18.328,10.87,1
6.9348054,-1.560421,7.1981673,-0.010079277,0.0125227375,-0.023518313,-15.777,18.328,10.87,1
6.955156,-1.5101427,7.0766616,-0.03023783,0.032070424,-0.029321533,-15.777,18.328,10.87,1
6.9808936,-1.5807717,7.197569,-0.021685716,0.018325957,-0.020463986,-15.777,18.328,10.87,1
6.9186444,-1.4999673,7.1155677,-0.02107485,0.04917465,-0.037873644,-15.777,18.328,10.87,1
6.9587474,-1.5496471,7.116166,0.005497787,0.015577064,-0.021380283,-15.777,18.328,10.87,1
6.911462,-1.5251064,7.2741833,0.018936822,0.013744468,-0.019547688,-15.777,18.328,10.87,1
6.915652,-1.5993267,7.211934,0.018325957,0.011911872,-0.027794369,-15.132,18.328,10.87,1
6.911462,-1.5801731,7.1502833,0.087659165,-0.062002823,-0.03848451,-15.132,18.328,10.87,1
6.8851256,-1.5915456,7.08145,-0.01282817,0.003970624,-0.00061086525,-15.132,18.328,10.87,1
6.880337,-1.6011224,7.0329676,0.020158553,-0.01160644,0.017715093,-15.132,18.328,10.87,1
6.9605427,-1.4748282,7.2059484,0.0009162979,-0.013744468,-0.011911872,-15.132,18.328,10.87,1
7.017405,-1.3132197,7.047931,0.056199603,-0.05955936,-0.03726278,-15.132,18.328,10.87,1
6.928221,-1.6400281,7.1981673,0.059864793,-0.043982297,-0.028710667,-15.132,18.328,10.87,1
6.9916677,-1.7220296,7.0227923,0.008246681,0.007330383,-0.03756821,-15.481,18.328,10.87,1
7.041347,-1.5879543,6.9844847,-0.0033597588,-0.01863139,-0.054367006,-15.481,18.328,10.87,1
7.057508,-1.2940661,6.993463,-0.046731193,-0.0143553335,-0.10170906,-15.843,18.328,10.87,1
7.065888,-1.3964181,7.018004,-0.118507855,-0.13469578,-0.11148291,-16.172,18.328,11.219,1
7.019799,-1.3563153,6.9946604,-0.1255328,-0.099571034,-0.09590584,-16.833,18.328,11.219,1
7.1903863,-1.3030443,7.2394676,-0.047647487,0.086437434,-0.05497787,-16.833,18.328,11.521,1
7.1754227,-1.7723078,6.669049,-0.01282817,0.018936822,-0.017715093,-16.502,18.328,11.521,1
7.2245035,-1.5598224,6.8246717,-0.0030543262,0.014660766,-0.027794369,-16.16,18.328,11.833,1
7.216124,-1.5292963,6.949769,-0.021991149,0.013133603,-0.029626964,-16.16,18.328,11.833,1
7.1849995,-1.5987282,6.7827735,-0.027488936,0.12736541,-0.018020526,-16.16,18.328,11.833,1
7.277176,-1.4915876,6.7881603,-0.016187929,0.032070424,-0.050396383,-15.846,18.635,11.833,1
7.150882,-1.5119383,6.8426285,0.006414085,0.026267206,-0.01985312,-15.846,18.635,11.523,1
7.2233067,-1.602918,7.0826473,0.029321533,0.021991149,-0.032070424,-15.846,18.635,11.523,1
7.1083846,-1.6005238,6.740875,0.0125227375,0.01038471,-0.035124753,-15.539,18.635,11.523,1
7.0904284,-1.6023195,7.055712,0.030543262,0.029321533,-0.03848451,-15.539,18.635,11.523,1
7.128137,-1.6035166,6.940192,0.062002823,-0.026572637,-0.10598512,-15.539,18.635,11.523,1
7.043741,-1.6747441,6.8569937,-0.04520403,-0.17073683,-0.082161374,-15.887,18.635,11.523,1
7.1209545,-1.7064673,7.120356,-0.00030543262,-0.0012217305,-0.0580322,-15.887,18.307,11.523,1
7.241862,-1.2611457,6.7588315,0.055588737,0.23548855,-0.024129177,-15.887,18.307,11.523,1
7.1592617,-1.3736732,6.6486983,-0.0076358155,0.3191771,0.04184427,-15.887,18.307,11.523,1
7.438186,-1.1390414,6.9461775,0.03359759,0.013133603,0.08307768,-15.887,18.307,11.523,1
7.03177,-1.4227544,7.033566,-0.0842994,0.017104227,0.11056661,-16.195,18.629,11.195,1
7.065289,-1.4820108,7.4992385,-0.16584991,0.08246681,0.08582657,-16.195,18.933,11.195,1
6.893505,-1.5424645,7.138911,-0.0143553335,0.030543262,0.017715093,-15.876,19.285,11.195,1
6.8007298,-1.7872716,7.0587053,0.0027488936,-0.111177474,-0.01740966,-15.876,19.596,11.195,1
6.7893577,-1.8872294,6.894104,0.042760566,-0.12614368,-0.059864793,-16.227,19.596,11.195,1
6.976105,-1.7782934,7.1604586,-0.038179077,-0.026572637,-0.03176499,-16.529,19.596,11.508,1
6.9731126,-2.0440497,6.6708446,0.04062254,-0.041233405,-0.04734206,-16.195,19.596,11.508,1
7.050924,-1.7531542,6.927623,0.015882496,0.017715093,-0.034208454,-16.195,19.596,11.508,1
7.08983,-1.7411832,6.999449,0.014966198,-0.023518313,-0.04184427,-16.511,19.596,11.508,1
7.0928226,-1.903989,6.872556,-0.005497787,0.021991149,-0.031154128,-16.827,19.596,11.508,1
7.119757,-1.7950528,6.8186865,0.013744468,0.0070249503,-0.03848451,-16.465,19.596,11.508,1
7.111976,-1.7010803,6.8863225,-0.012217305,0.0421497,-0.035430185,-16.465,19.596,11.508,1
7.1431007,-1.8249803,6.9928646,0.0290161,0.020158553,-0.035124753,-16.465,19.596,11.508,1
7.093421,-1.7926586,6.937798,-0.0061086523,0.03481932,-0.016493361,-16.465,19.596,11.508,1
7.1143703,-1.7429788,6.9569516,-0.02565634,0.021685716,-0.032070424,-16.465,19.596,11.508,1
7.0587053,-1.8237832,6.8869214,0.019242255,-0.1695151,-0.07941248,-16.465,19.596,11.819,1
7.074866,-1.7100586,6.855198,0.13591751,-0.29077184,-0.17715092,-16.795,19.267,12.173,1
6.9503675,-1.7717092,6.944382,-0.0693332,-0.033292156,-0.07452556,-17.115,19.267,12.173,1
7.295731,-1.608305,6.803723,0.061391957,0.077579886,-0.081855945,-17.115,18.966,12.173,1
7.3807254,-1.489792,6.616975,0.03268129,0.029626964,-0.070554934,-17.115,18.644,12.173,1
7.330447,-1.4437037,6.9288197,0.020158553,0.06169739,-0.04642576,-17.115,18.644,12.173,1
7.309498,-1.6286557,6.7318964,0.008857546,0.05589417,-0.034513887,-17.115,18.644,12.173,1
7.371747,-1.4478935,6.8025255,0.0143553335,0.063224554,-0.022907447,-17.442,18.644,12.173,1
7.29214,-1.353921,6.9048777,-0.059253927,0.03970624,-0.021380283,-17.442,18.644,12.173,1
7.241263,-1.472434,6.769605,-0.060170226,0.04795292,-0.0290161,-17.092,18.644,12.173,1
7.2394676,-1.3718776,6.8103065,0.008552114,0.029626964,-0.02565634,-16.781,18.644,12.173,1
7.2107368,-1.4119805,6.9210386,-0.029321533,0.046120327,-0.027183503,-16.116,18.644,12.173,1
7.219715,-1.6071079,6.867768,-0.033292156,0.002443461,-0.018936822,-16.116,18.644,11.848,1
7.1754227,-1.4999673,6.8228765,-0.26389378,0.118202426,0.004886922,-15.791,18.644,11.848,1
7.229292,-1.4688427,6.8462195,-0.5726862,0.07544186,0.09315695,-15.489,18.644,11.848,1
7.0545154,-1.2683283,6.455366,-0.31795537,-0.03390302,0.018020526,-15.489,19.747,11.848,1
7.2388687,-1.6687586,6.749853,-0.09712757,0.06566802,-0.027183503,-15.489,20.796,12.496,1
7.0227923,-2.508525,6.968324,0.03726278,0.029932396,-0.026267206,-15.489,21.113,12.805,1
7.135918,-2.4546554,7.137714,-0.14172074,-0.06872234,-0.053450707,-15.489,21.113,12.805,1
7.0982094,-2.3582888,6.76781,0.058948494,-0.06872234,-0.14813483,-15.489,21.434,12.805,1
7.03596,-2.391209,6.839037,0.38759398,0.0290161,-0.13622294,-15.856,21.434,12.805,1
7.0754647,-2.4133554,6.2327056,0.13347405,0.27916542,-0.005192355,-16.181,21.109,12.455,1
7.153875,-2.5306711,7.0886326,0.059253927,0.28955013,0.032986723,-15.837,20.388,12.077,1
6.773795,-2.0081367,7.031172,-0.004886922,0.08155051,0.002443461,-15.187,20.388,11.436,1
6.435614,-1.8339585,6.83784,0.032375857,0.022602014,-0.01038471,-15.187,20.388,11.112,1
6.707356,-1.9500773,7.33344,0.025961773,0.009162978,-0.0009162979,-15.187,20.388,11.112,1
6.742072,-2.2272062,7.077859,0.023518313,0.02321288,-0.034208454,-15.516,20.388,11.112,1
6.6085954,-1.988983,7.380127,0.023823744,0.0067195175,-0.042760566,-15.516,20.388,11.112,1
6.55712,-1.8992004,7.32925,-0.021380283,-0.022907447,-0.0067195175,-15.118,20.388,11.112,1
6.6882024,-2.046444,7.3849154,0.04062254,-0.084910266,-0.0036651916,-14.761,20.388,11.112,1
6.5864487,-1.9961656,7.267599,0.036651913,-0.07422013,-0.028099801,-14.761,20.388,11.112,1
6.6361284,-1.9806033,7.393295,0.024129177,-0.053450707,-0.0061086523,-14.761,20.388,11.112,1
6.6391215,-2.0895395,7.177817,0.036957346,-0.0720821,-0.0125227375,-15.084,20.388,11.112,1
6.64391,-1.8567034,7.2023573,0.017104227,-0.0983493,-0.03726278,-15.402,20.388,11.112,1
6.754043,-1.9542671,7.2789717,0.04520403,-0.17348573,-0.051618114,-15.402,20.388,11.112,1
6.9048777,-1.8614918,7.2592196,-0.030848695,-0.047036625,-0.029321533,-15.727,20.086,11.425,1
6.7989345,-1.9500773,7.0227923,0.028099801,-0.09407325,-0.06169739,-16.07,20.086,11.758,1
6.930017,-2.0362685,7.0587053,0.07391469,-0.20769419,-0.07788532,-16.381,20.086,11.758,1
7.0108213,-1.8968062,7.068282,0.024129177,-0.058948494,-0.016493361,-16.743,20.086,12.063,1
6.941389,-2.0003555,6.9318123,0.051923547,-0.079107046,-0.036651913,-17.066,19.76,12.063,1
7.061698,-1.8818425,6.956353,0.054061573,-0.008552114,-0.05100725,-17.46,19.436,12.063,1
7.183802,-1.6005238,6.867169,0.08277224,0.044593163,-0.03634648,-17.074,19.436,12.063,1
7.2544312,-1.6316484,6.8929067,0.071776666,0.056199603,-0.040317107,-16.754,19.436,12.063,1
7.2723875,-1.5921441,6.821679,0.047647487,0.020463986,-0.037873644,-16.754,19.131,12.063,1
7.157466,-1.5298948,7.0126166,0.049785517,0.044593163,-0.034208454,-17.108,19.131,12.063,1
7.153875,-1.5406688,6.8360443,0.060170226,0.40103304,-0.0106901415,-17.108,18.817,11.763,1
7.1185603,-1.4891934,6.9066734,0.05955936,0.29535335,0.046731193,-16.39,18.817,11.37,1
7.0928226,-1.4401124,6.9892735,0.015577064,0.0125227375,-0.014966198,-16.072,18.817,11.068,1
6.831256,-1.572392,7.307702,0.01985312,0.086437434,0.004581489,-15.753,18.817,10.676,1
6.6882024,-1.3413515,7.471705,-0.018020526,0.06841691,-0.0067195175,-15.451,18.817,10.676,1
6.7342906,-1.4586674,7.3208704,-0.029932396,0.029321533,0.0036651916,-15.451,18.817,10.676,1
6.642114,-1.6699557,7.177817,-0.03604105,-0.07360926,-0.016187929,-15.451,18.817,10.676,1
6.616975,-1.5520413,7.41604,-0.014049901,-0.063224554,-0.03726278,-15.451,18.817,10.676,1
6.618172,-1.5837644,7.472902,0.04734206,-0.08002335,-0.043066,-15.451,18.817,10.676,1
6.7163343,-1.6729485,7.3525934,0.016493361,0.02565634,-0.04153884,-15.451,18.817,10.676,1
6.679823,-1.6352397,7.289746,0.020158553,-0.013133603,-0.043676864,-15.451,18.817,10.676,1
6.7318964,-1.5472529,7.280169,0.121256754,-0.07452556,-0.06169739,-15.451,18.817,10.676,1
6.809708,-1.5873557,7.2819643,-0.02107485,0.008552114,-0.028099801,-16.098,18.817,10.98,1
6.649895,-1.417966,7.358579,0.022907447,-0.00580322,-0.05222898,-16.098,18.817,10.98,1
6.7827735,-1.3192052,7.0964136,0.0030543262,0.04917465,-0.022907447,-15.731,18.492,10.655,1
6.865972,-1.4036007,7.3591776,-0.022602014,0.034513887,-0.014966198,-15.377,18.492,10.655,1
6.793547,-1.401805,7.2107368,0.009468411,-0.025350908,-0.03634648,-15.377,18.492,10.655,1
6.8049197,-1.4083891,7.265804,-0.0015271631,0.0106901415,-0.03176499,-15.377,18.492,10.655,1
6.7648168,-1.3742718,7.3112936,0.0018325958,0.027183503,-0.032070424,-15.377,18.492,10.655,1
6.8228765,-1.4143747,7.273585,-0.006414085,0.02687807,-0.02565634,-15.031,18.492,10.655,1
6.8001313,-1.4287399,7.337031,0.030543262,0.0033597588,-0.028710667,-15.031,18.191,10.655,1
6.811504,-1.4526819,7.406463,0.04337143,0.023518313,-0.03481932,-15.031,18.191,10.655,1
6.7708025,-1.4293385,7.3807254,0.022907447,-0.019547688,-0.029321533,-15.374,18.191,10.655,1
6.7785835,-1.4173675,7.289147,0.020463986,0.010079277,-0.03023783,-15.374,18.191,10.655,1
6.782175,-1.3198037,7.3926964,-0.0125227375,0.026267206,-0.03145956,-15.374,18.191,10.997,1
6.76362,-1.3928268,7.259818,-0.004886922,0.0015271631,-0.025961773,-15.374,18.191,10.997,1
6.8252707,-1.3569138,7.301717,0.011911872,0.023518313,-0.032986723,-15.374,18.191,10.997,1
6.803124,-1.4341269,7.2987237,0.004581489,0.004581489,-0.03023783,-15.045,18.191,10.694,1
6.773795,-1.3497312,7.2741833,-0.036957346,0.044593163,-0.03359759,-15.045,18.191,10.694,1
6.8127007,-1.3748703,7.3388267,-0.013133603,0.002443461,-0.019242255,-15.045,18.191,10.694,1
6.7893577,-1.3682863,7.271789,0.00061086525,0.01863139,-0.035430185,-15.045,17.881,10.694,1
6.7743936,-1.376666,7.374141,0.023823744,0.00061086525,-0.03756821,-14.393,17.881,10.694,1
6.7570357,-1.3605051,7.354389,-0.014966198,0.025045475,-0.022907447,-14.393,17.881,10.694,1
6.791153,-1.3754689,7.3208704,0.018020526,0.010079277,-0.03390302,-14.393,17.881,10.694,1
6.7989345,-1.352724,7.282563,-0.0125227375,0.028710667,-0.03176499,-14.393,17.881,10.694,1
6.770204,-1.3587095,7.369353,-0.00580322,0.021685716,-0.029626964,-14.083,17.881,10.694,1
6.7666125,-1.3551182,7.3202715,0.010995574,0.0067195175,-0.032375857,-14.083,17.881,10.694,1
6.742072,-1.3006501,7.2747817,-0.017715093,0.014966198,-0.026267206,-14.083,17.881,10.694,1
6.76781,-1.353921,7.3430166,0.006414085,0.017104227,-0.029932396,-14.083,17.881,10.694,1
6.743868,-1.352724,7.330447,0.010995574,0.0018325958,-0.02321288,-13.755,17.881,10.694,1
6.7402763,-1.282095,7.2304893,-0.0076358155,0.009773844,-0.03940081,-14.071,17.881,10.694,1
6.736685,-1.3491327,7.451953,-0.0070249503,0.009773844,-0.026572637,-14.071,17.881,10.694,1
6.716933,-1.2850877,7.349002,0.0033597588,0.00580322,-0.03023783,-14.071,17.881,10.694,1
6.749853,-1.3395559,7.3777328,0.00061086525,0.00030543262,-0.015271631,-14.071,17.881,10.694,1
6.729502,-1.3347675,7.369353,-0.025961773,-0.052839845,0.018020526,-14.071,17.881,10.694,1
6.767211,-1.3575124,7.3633676,0.022602014,-0.00061086525,-0.028099801,-14.071,17.881,10.694,1
6.7929487,-1.3347675,7.4327993,0.11942416,-0.005497787,0.017104227,-14.071,17.881,10.694,1
6.7827735,-1.4371196,7.335834,0.042455133,-0.03145956,0.0009162979,-14.071,17.881,10.694,1
6.8839283,-1.4580688,7.415441,-0.007330383,0.03145956,-0.027794369,-14.071,17.581,10.694,1
6.736685,-1.3868413,7.345411,0.009162978,-0.01038471,-0.044593163,-13.757,17.581,10.694,1
6.851607,-1.1653777,7.15986,0.007330383,0.044593163,-0.04734206,-13.757,17.581,10.694,1
6.8246717,-1.3874398,7.3106947,0.0143553335,0.018020526,-0.051923547,-13.757,17.581,10.694,1
6.7809777,-1.3664906,7.3106947,0.083383106,0.027183503,-0.036957346,-14.067,17.581,10.694,1
6.818088,-1.2749124,7.2963295,-0.053450707,0.0027488936,-0.018020526,-14.067,17.581,10.694,1
6.799533,-1.2707225,7.3484035,0.00580322,0.021991149,-0.027794369,-14.067,17.581,10.371,1
6.779182,-1.1540052,7.3448124,-0.03970624,0.01863139,-0.014966198,-14.382,17.581,10.371,1
6.7510505,-1.270124,7.3986816,0.0067195175,0.01863139,-0.01863139,-15.039,17.581,10.371,1
6.7725983,-1.2808979,7.3166804,-0.0143553335,-0.013744468,-0.030848695,-15.039,17.581,10.371,1
6.766014,-1.3054385,7.33344,-0.0125227375,0.013133603,-0.028099801,-15.039,17.892,10.371,1
6.7719994,-1.3497312,7.433996,-0.0061086523,0.014966198,-0.02565634,-15.039,17.892,10.371,1
6.7743936,-1.2653356,7.3106947,0.00030543262,0.014049901,-0.029626964,-15.039,17.892,10.371,1
6.7642183,-1.3688848,7.3472066,0.015882496,0.007330383,-0.034208454,-15.039,17.892,10.371,1
6.7887588,-1.3323733,7.3849154,-0.0027488936,0.0030543262,-0.023518313,-15.382,17.892,10.371,1
6.769605,-1.335366,7.3322425,-0.013439035,0.014049901,-0.026572637,-15.382,17.892,10.371,1
6.7450647,-1.3587095,7.369353,-0.01740966,-0.03145956,-0.039095376,-15.713,17.892,10.371,1
6.7546415,-1.3928268,7.2783732,-0.03573562,0.015882496,-0.03573562,-15.713,17.892,10.371,1
6.747459,-1.3808558,7.3789296,-0.0070249503,-0.015577064,-0.029626964,-15.713,17.892,10.371,1
6.771401,-1.3634979,7.247847,0.0070249503,0.0076358155,-0.026267206,-15.713,17.892,10.678,1
6.827665,-1.4012065,7.3268557,0.002443461,0.008246681,-0.030543262,-15.713,18.197,10.678,1
6.813898,-1.3748703,7.3460093,-0.0027488936,0.010995574,-0.032375857,-15.408,18.197,10.678,1
6.8007298,-1.3670892,7.3418193,0.032070424,-0.004886922,-0.03726278,-14.782,18.197,10.678,1
6.7708025,-1.3664906,7.3106947,0.0143553335,0.019242255,-0.03023783,-14.469,17.895,10.678,1
6.8007298,-1.3623008,7.3699512,0.0106901415,-0.007941248,-0.032070424,-14.469,17.895,10.678,1
6.803124,-1.3281834,7.317279,0.01985312,-0.011301007,-0.025045475,-14.469,17.895,10.678,1
6.809708,-1.3138182,7.318476,-0.0061086523,0.014660766,-0.028099801,-14.166,17.582,10.678,1
6.801927,-1.3623008,7.389105,-0.00580322,-0.003970624,-0.03176499,-14.166,17.582,10.678,1
6.7708025,-1.3239936,7.2406645,0.007330383,0.009162978,-0.02565634,-14.166,17.582,10.678,1
6.8318543,-1.3204023,7.255628,-0.004276057,0.0036651916,-0.033292156,-14.166,17.582,10.678,1
6.793547,-1.3491327,7.357382,0.003970624,0.007330383,-0.024740042,-14.166,17.582,10.678,1
6.803723,-1.287482,7.2514386,0.008857546,0.011301007,-0.020463986,-14.166,17.582,10.678,1
6.819285,-1.3515269,7.2873516,-0.0125227375,0.0106901415,-0.024740042,-13.851,17.582,10.678,1
6.809708,-1.3599066,7.36217,0.0021380284,0.004886922,-0.02687807,-13.851,17.582,10.678,1
6.8198833,-1.2838906,7.2568254,-0.006414085,0.018936822,-0.029321533,-13.851,17.582,10.678,1
6.817489,-1.3443443,7.3340383,-0.028405234,0.013744468,-0.021685716,-13.851,17.582,10.678,1
6.803124,-1.3820529,7.181408,-0.012217305,0.007330383,-0.018325957,-13.851,17.582,10.678,1
6.8366427,-1.2838906,7.281366,-0.03481932,0.0067195175,-0.024740042,-13.851,17.582,10.678,1
6.8282633,-1.4215573,7.338228,-0.025350908,0.009468411,-0.011301007,-14.167,17.582,10.986,1
6.8252707,-1.2856863,7.1724296,0.00061086525,-0.008246681,-0.032986723,-14.167,17.582,10.986,1
6.8426285,-1.3275849,7.2849574,-0.035430185,0.013133603,-0.025045475,-14.167,17.582,10.986,1
6.797737,-1.4496891,7.3603745,0.009162978,0.0018325958,-0.03176499,-14.167,17.886,10.986,1
6.831256,-1.395221,7.2167225,0.0036651916,0.0106901415,-0.022296581,-14.167,17.886,10.986,1
6.8504095,-1.4000094,7.3071036,-0.01160644,0.013133603,-0.02443461,-14.167,17.886,10.986,1
6.827665,-1.4305356,7.2711906,-0.012217305,0.0076358155,-0.026572637,-14.167,17.886,10.986,1
6.8186865,-1.4401124,7.261614,-0.002443461,0.0021380284,-0.027794369,-14.167,17.886,10.986,1
6.8492126,-1.4395138,7.3124905,0.0036651916,0.005192355,-0.024740042,-13.862,17.886,10.986,1
6.8306575,-1.4251486,7.2981253,-0.0290161,0.022296581,-0.03176499,-13.862,17.886,10.682,1
6.817489,-1.4149733,7.301118,-0.00580322,0.009468411,-0.03359759,-13.862,17.886,10.682,1
6.8384385,-1.441908,7.277775,-0.018020526,0.020463986,-0.02443461,-13.862,17.886,10.682,1
6.8504095,-1.5239093,7.3268557,-0.0030543262,0.004886922,-0.026572637,-13.862,17.886,10.682,1
6.7923503,-1.4903905,7.2394676,-0.006414085,0.014660766,-0.032070424,-14.166,17.886,10.682,1
6.8366427,-1.5113398,7.2687964,0.00061086525,0.013439035,-0.030848695,-14.166,17.886,10.682,1
6.7947445,-1.4742297,7.270592,0.003970624,0.014660766,-0.028710667,-13.853,17.886,10.682,1
6.8198833,-1.4903905,7.2987237,-0.0143553335,0.0290161,-0.021991149,-13.853,17.886,10.682,1
6.8132997,-1.4526819,7.2873516,0.017104227,0.00061086525,-0.03481932,-13.853,17.886,10.682,1
6.8222775,-1.4921862,7.2113357,-0.02687807,0.006414085,-0.025350908,-13.853,17.886,10.682,1
6.818088,-1.4652514,7.3388267,0.015577064,0.018936822,-0.01985312,-13.853,17.886,10.682,1
6.799533,-1.4664485,7.2927384,-0.01282817,-0.02321288,-0.017104227,-13.853,17.886,10.682,1
6.8132997,-1.5275006,7.3753386,-0.0290161,-0.0290161,-0.025045475,-13.853,17.886,10.682,1
6.817489,-1.4155718,7.345411,-0.03756821,-0.04520403,-0.015882496,-13.853,18.232,10.682,1
6.821679,-1.453879,7.241263,0.0067195175,0.00061086525,-0.032070424,-14.173,18.232,10.682,1
6.8264675,-1.6071079,7.297527,0.018325957,-0.017715093,-0.029932396,-14.173,18.232,10.983,1
6.806117,-1.5616181,7.2227077,-0.008552114,-0.02321288,-0.037873644,-14.483,18.232,10.983,1
6.8653736,-1.5891514,7.2664022,0.015882496,-0.010079277,-0.04550946,-14.483,18.232,10.983,1
6.8162923,-1.5466543,7.216124,-0.0061086523,0.007330383,-0.03023783,-14.149,18.232,10.65,1
6.839636,-1.5239093,7.1766195,0.003970624,0.018325957,-0.024740042,-14.149,18.232,10.65,1
6.8450227,-1.5759833,7.24665,0.016187929,0.0018325958,-0.031154128,-14.149,18.232,10.65,1
6.8869214,-1.5777789,7.1383123,-0.037873644,0.032070424,-0.032375857,-14.465,18.232,10.65,1
6.889914,-1.5011644,7.2388687,0.0009162979,0.019242255,-0.029626964,-14.151,18.232,10.65,1
6.8282633,-1.5107412,7.20954,-0.015271631,0.0125227375,-0.0290161,-13.841,18.232,10.65,1
6.8007298,-1.5101427,7.3537903,0.0021380284,0.026572637,-0.048563786,-13.841,18.232,10.65,1
6.817489,-1.5382746,7.171831,0.0067195175,0.019242255,-0.04062254,-13.841,18.232,10.65,1
6.8438253,-1.5496471,7.2245035,-0.009468411,0.012217305,-0.02321288,-13.841,18.232,10.65,1
6.831256,-1.5616181,7.1700354,0.008552114,0.00580322,-0.035124753,-14.163,18.232,10.977,1
6.8306575,-1.5053543,7.3106947,-0.010995574,0.011911872,-0.025961773,-14.163,18.232,10.977,1
6.83365,-1.6011224,7.3537903,-0.003970624,0.009773844,-0.034513887,-13.812,18.232,10.977,1
6.7965403,-1.5933412,7.2502413,-0.004581489,0.00580322,-0.024129177,-13.812,18.232,10.635,1
6.806117,-1.5286977,7.2304893,0.0033597588,0.01282817,-0.027794369,-13.812,18.232,10.635,1
6.8408327,-1.6154876,7.2568254,-0.0067195175,0.008857546,-0.032375857,-14.179,18.232,10.635,1
6.8372416,-1.5891514,7.281366,0.0027488936,0.005192355,-0.02565634,-14.179,18.232,10.635,1
6.8504095,-1.525705,7.2604165,0.003970624,0.0067195175,-0.034513887,-13.836,18.232,10.635,1
6.8162923,-1.5867572,7.268198,0.004276057,0.010079277,-0.022602014,-13.836,18.232,10.635,1
6.851607,-1.5400703,7.2789717,-0.014966198,0.0030543262,-0.03756821,-13.836,18.232,10.635,1
6.7893577,-1.525705,7.258621,-0.002443461,-0.0070249503,-0.030543262,-13.836,18.232,10.939,1
6.8587894,-1.5556326,7.255628,-0.02107485,-0.0015271631,-0.02107485,-14.448,18.232,10.939,1
6.8348475,-1.596334,7.2101383,-0.014049901,0.025350908,-0.021685716,-14.448,18.54,10.939,1
6.8504095,-1.5945383,7.2340803,-0.018936822,0.041233405,-0.028405234,-14.448,18.54,10.939,1
6.892308,-1.6334441,7.1251445,0.0015271631,0.02565634,-0.02565634,-14.111,18.54,10.939,1
6.8001313,-1.6154876,7.2807674,-0.0125227375,0.016798794,-0.03268129,-13.804,18.54,10.939,1
6.821679,-1.5532384,7.1987658,-0.002443461,0.016187929,-0.034513887,-13.804,18.54,10.939,1
6.8384385,-1.6316484,7.2143283,-0.01740966,0.006414085,-0.021380283,-13.804,18.54,10.939,1
6.8450227,-1.5095441,7.2460513,-0.056505036,0.09560041,-0.03940081,-13.804,18.54,10.939,1
6.743269,-1.5652094,7.234679,-0.006414085,-0.025045475,-0.04734206,-13.804,18.54,10.939,1
6.807314,-1.75076,7.1885905,0.043982297,-0.09743301,-0.042455133,-13.804,18.54,10.939,1
6.771401,-1.8537107,7.5566993,-0.051923547,0.034208454,-0.012217305,-13.804,18.54,10.939,1
6.782175,-1.7501614,7.2622123,-0.06383542,0.06872234,-0.027488936,-13.804,18.54,10.939,1
6.813898,-1.7052702,7.216124,0.08155051,0.101098195,-0.030543262,-14.144,18.54,10.939,1
6.82946,-1.6711528,7.3124905,-0.042455133,0.07238753,-0.002443461,-14.144,18.855,10.633,1
6.8043213,-1.9387048,7.6548615,0.0033597588,0.06994407,-0.008552114,-14.5,18.855,10.633,1
6.655881,-1.5035586,7.3627687,-0.025350908,0.026267206,-0.017104227,-14.5,19.177,10.633,1
6.646304,-1.6328455,7.309498,-0.043676864,0.011301007,-0.02565634,-14.5,19.177,10.633,1
6.673837,-1.8070238,7.435792,-0.00061086525,-0.01282817,-0.032070424,-14.5,19.177,10.633,1
6.551733,-1.7812861,7.290344,-0.0030543262,-0.073303826,-0.028405234,-14.802,19.177,10.319,1
6.6103907,-1.7459716,7.4046674,-0.047036625,-0.052534413,-0.016187929,-15.127,19.177,10.319,1
6.6385226,-1.8722657,7.4375877,0.020158553,-0.026572637,-0.0290161,-15.127,19.177,10.639,1
6.691794,-1.6903064,7.2723875,0.0018325958,-0.0015271631,-0.034513887,-15.127,19.177,10.639,1
6.7133417,-1.7878702,7.3005195,-0.002443461,-0.0067195175,-0.022602014,-15.127,19.48,10.639,1
6.7067575,-1.7770962,7.253833,-0.008246681,0.013133603,-0.03604105,-15.127,19.48,10.639,1
6.727108,-1.7501614,7.2430587,0.014660766,-0.024129177,-0.03145956,-15.127,19.48,10.639,1
6.7522473,-1.7699136,7.3591776,-0.014660766,0.011911872,-0.018936822,-15.127,19.48,10.639,1
6.7342906,-1.7842789,7.20954,0.015577064,-0.02107485,-0.034208454,-15.127,19.48,10.639,1
6.737882,-1.7058687,7.267599,-0.006414085,0.008246681,-0.027488936,-15.127,19.48,10.639,1
6.7905545,-1.8148049,7.3609734,-0.004581489,-0.00030543262,-0.03268129,-14.825,19.48,10.639,1
6.7384806,-1.7543513,7.2167225,-0.0021380284,0.0070249503,-0.024740042,-15.147,19.158,10.639,1
6.791153,-1.721431,7.294534,0.011911872,-0.007941248,-0.0290161,-15.457,19.158,10.972,1
6.7588315,-1.7770962,7.231686,0.013744468,-0.007941248,-0.033292156,-15.457,19.158,10.972,1
6.7959414,-1.7932571,7.317279,0.013744468,-0.022602014,-0.032375857,-15.457,19.158,10.972,1
6.7773867,-1.7537527,7.277775,0.0012217305,-0.008552114,-0.03268129,-15.457,19.158,10.972,1
6.795343,-1.7687165,7.315483,-0.003970624,-0.0030543262,-0.019547688,-15.457,19.158,10.972,1
6.825869,-1.7076644,7.1544733,-0.009162978,0.0030543262,-0.034513887,-15.457,19.158,10.972,1
6.8043213,-1.6753427,7.199963,0.005192355,0.004581489,-0.031154128,-15.115,19.158,10.972,1
6.8486137,-1.6765398,7.2490444,0.0125227375,0.01160644,-0.027794369,-15.115,19.158,10.972,1
6.853402,-1.7088615,7.2107368,0.017715093,-0.0061086523,-0.034208454,-15.115,19.158,10.972,1
6.8198833,-1.7286136,7.2604165,0.008857546,-0.018325957,-0.025350908,-14.353,18.843,10.972,1
6.8360443,-1.7052702,7.2328835,0.013744468,0.014049901,-0.036957346,-14.353,18.843,10.972,1
6.8079123,-1.7609353,7.225102,0.02321288,0.0070249503,-0.03573562,-14.353,18.843,10.972,1
6.8438253,-1.6992847,7.1425023,0.009468411,0.005192355,-0.0290161,-14.035,18.843,10.972,1
6.869563,-1.6813282,7.2460513,0.00030543262,0.0021380284,-0.03176499,-14.035,18.843,10.972,1
6.8809357,-1.7112557,7.177817,0.0009162979,0.0021380284,-0.033292156,-14.035,18.519,10.972,1
6.8198833,-1.6136919,7.2298903,-0.004581489,0.0030543262,-0.042760566,-14.035,18.519,10.972,1
6.8887167,-1.6831238,7.2328835,-0.026267206,0.05497787,-0.058948494,-14.035,18.519,10.972,1
6.881534,-1.6220716,7.265205,-0.009773844,0.07452556,-0.10781772,-14.035,18.519,10.972,1
7.0467343,-1.6801311,8.267777,-0.13194689,-0.046120327,-0.06536258,-13.388,18.519,10.972,1
6.9862804,-1.5029601,8.053496,0.21655174,-0.23945917,-0.064446285,-13.388,18.519,10.972,1
6.6828156,-1.6998832,7.81647,0.14172074,-0.003970624,-0.09773844,-13.388,18.833,10.972,1
6.655881,-1.9309237,7.4016747,0.034513887,-0.25350907,-0.10262536,-13.688,18.833,10.972,1
6.741473,-1.6448165,7.00304,-0.028099801,-0.17806722,-0.106595986,-14.001,18.533,10.972,1
6.9892735,-1.4838065,6.931214,0.035124753,-0.05100725,-0.074830994,-14.373,18.533,10.972,1
7.1113777,-1.2856863,6.1902084,-0.0027488936,-0.03268129,-0.052839845,-14.694,18.533,10.972,1
7.023391,-1.2126632,6.1219735,-0.086132,-0.12858713,-0.04886922,-14.694,18.533,10.972,1
7.2143283,-1.1821371,6.9144545,-0.0009162979,-0.04550946,-0.032986723,-14.694,18.533,10.972,1
7.3071036,-1.371279,6.706159,0.0027488936,-0.033292156,-0.051923547,-14.694,18.533,10.972,1
7.363966,-1.3192052,6.843227,-0.003970624,-0.051923547,-0.00580322,-15.011,18.533,10.972,1
7.3753386,-1.1665748,6.549339,-0.036651913,0.02321288,-0.034513887,-15.011,18.533,11.293,1
7.354389,-1.2479776,6.84203,0.059864793,-0.043676864,-0.06566802,-15.353,18.533,11.293,1
7.371747,-1.2862848,6.5619082,-0.03176499,-0.0842994,-0.04886922,-15.675,18.533,11.595,1
7.475296,-1.365892,6.8240733,0.013439035,-0.01740966,-0.070249505,-15.675,18.533,11.595,1
7.390302,-1.2623428,6.692991,0.046731193,-0.02107485,-0.049785517,-16.02,18.533,11.595,1
7.4549456,-1.2569559,6.583456,-0.043982297,-0.07452556,-0.046120327,-16.325,18.533,11.595,1
7.5082164,-1.1731589,6.789956,0.028405234,-0.056505036,-0.041233405,-16.325,18.533,11.9,1
7.5824366,-1.3018472,6.4906807,-0.005497787,-0.04520403,0.018020526,-16.325,18.533,11.9,1
7.579444,-1.1258733,6.517017,-0.03756821,-0.051618114,0.056505036,-16.325,18.533,11.9,1
7.563283,-1.1504139,6.4463882,0.01740966,-0.09712757,0.009773844,-16.325,18.533,12.2,1
7.61416,-1.2623428,6.297349,-0.022602014,-0.099571034,0.009773844,-16.325,18.533,12.2,1
7.69257,-1.2826935,6.742072,-0.017104227,-0.08155051,0.029932396,-16.325,18.533,12.2,1
7.589619,-1.3688848,6.2500634,-0.04337143,-0.07422013,0.016493361,-16.325,18.864,12.506,1
7.5812397,-1.4688427,6.481104,-0.0070249503,-0.15118915,-0.018325957,-16.639,18.864,12.825,1
7.7308774,-1.4556746,6.5265937,0.043982297,-0.110872045,-0.086132,-16.639,18.864,13.146,1
7.9206176,-1.5628152,5.9825115,0.038789943,-0.15974127,-0.046731193,-16.639,18.864,13.146,1
8.025963,-1.4586674,6.0806737,-0.020463986,-0.20891592,-0.05467244,-16.958,18.864,13.453,1
7.8236527,-1.4407109,6.1477113,-0.03756821,-0.19547687,-0.04428773,-17.268,18.864,13.763,1
8.037335,-1.3551182,5.9160724,0.034513887,-0.2321288,-0.064446285,-17.605,18.864,14.117,1
8.084022,-1.4095862,5.8149176,0.055283304,-0.24037547,-0.079107046,-17.935,18.864,14.43,1
8.24204,-1.4478935,5.81372,0.06352998,-0.31398472,-0.043066,-18.568,18.864,14.784,1
8.3868885,-1.4197617,5.504868,0.118202426,-0.17959438,-0.018020526,-19.19,18.864,15.084,1
8.401254,-1.1953052,5.1930237,0.12370021,-0.28496864,-0.009468411,-19.528,18.864,15.388,1
8.498219,-1.2467805,5.075109,0.009162978,-0.33750305,-0.036651913,-19.859,18.545,15.692,1
8.722076,-1.1330559,5.0583496,0.04917465,-0.18875736,-0.110872045,-20.506,18.545,16.05,1
8.690952,-1.1534066,4.587889,0.15882497,-0.11942416,-0.14721853,-20.506,18.237,16.377,1
8.771158,-1.3563153,4.4556093,-0.0076358155,-0.018936822,-0.086437434,-20.817,17.9,16.696,1
8.79091,-1.1001357,4.5322237,-0.06627888,-0.06994407,-0.065973446,-21.124,17.578,16.696,1
8.861539,-0.973243,4.2898107,-0.09101892,-0.11209377,-0.086132,-21.124,17.578,16.696,1
9.051279,-0.79966336,4.5022964,-0.04642576,-0.035430185,-0.099571034,-21.124,17.578,17.004,1
9.076419,-0.8439561,4.325724,0.05222898,-0.0036651916,-0.13988814,-21.455,17.578,17.004,1
9.006389,-1.0283096,4.296395,0.052839845,-0.07513642,-0.1282817,-22.164,17.578,17.651,1
9.137471,-0.7858967,4.095282,0.086132,0.020158553,-0.16676621,-22.518,17.274,17.651,1
9.109938,-0.6847417,4.3957543,-0.010995574,-0.04153884,-0.14263703,-22.518,16.973,17.651,1
9.216479,-0.5057751,3.8696284,0.060170226,0.005192355,-0.15088372,-22.518,16.659,17.651,1
9.153631,-0.41120413,4.3394904,-0.016187929,0.04917465,-0.08827003,-22.518,16.336,17.651,1
9.11712,-0.41060558,4.1599255,-0.015577064,0.0015271631,-0.080634214,-22.518,16.336,17.651,1
9.057863,-0.30466217,4.245518,0.009773844,0.03970624,-0.028405234,-22.518,16.021,17.651,1
9.175778,-0.08678981,4.096479,0.061391957,0.03390302,-0.006414085,-22.518,16.021,17.651,1
9.277532,-0.36391866,4.1701007,-0.004581489,0.036957346,-0.046731193,-22.854,16.021,17.651,1
9.27394,-0.3728969,3.9444473,0.007941248,0.086132,0.0421497,-23.158,16.021,17.651,1
9.099762,-0.31603462,4.10845,0.0067195175,0.029321533,-0.052534413,-23.158,16.021,17.651,1
8.981848,-0.28790274,4.386776,0.03726278,-0.025045475,-0.03359759,-22.55,16.021,17.344,1
9.224859,-0.15562311,4.5777135,-0.07788532,0.03481932,-0.005497787,-22.25,16.021,17.344,1
8.930971,-0.30286652,4.313154,-0.009162978,0.02107485,-0.02687807,-22.25,16.021,17.044,1
9.124901,-0.2160767,4.189853,0.01985312,0.01160644,-0.0580322,-22.25,16.021,17.044,1
9.245809,-0.51355624,4.1934443,0.011911872,-0.009773844,-0.035124753,-22.25,16.021,17.044,1
9.178172,-0.39145198,4.2969937,-0.060170226,0.0070249503,-0.00061086525,-22.25,16.021,17.044,1
8.980651,-0.24779987,4.313753,-0.025961773,0.017104227,0.0021380284,-22.573,16.021,17.349,1
9.019556,-0.16220717,4.2658687,0.01282817,-0.03481932,-0.048563786,-22.573,16.021,17.349,1
9.127894,-0.2813187,4.409521,0.008857546,-0.020158553,-0.032986723,-22.573,16.021,17.349,1
9.220071,-0.41479546,4.281431,0.015577064,0.00061086525,-0.03390302,-22.573,16.021,17.349,1
9.1512375,-0.35194764,4.0761285,-0.003970624,0.0290161,-0.022907447,-22.271,16.021,17.349,1
9.124303,-0.37828386,4.1293993,-0.060170226,0.09437868,-0.0076358155,-22.271,16.021,17.349,1
9.147048,-0.38965634,4.238934,-0.054061573,0.05497787,-0.023823744,-22.271,16.021,17.349,1
9.136872,-0.30885202,4.237737,-0.002443461,0.007330383,-0.019242255,-22.271,16.021,17.349,1
9.176975,-0.41120413,4.1162314,-0.02107485,0.050701816,0.002443461,-22.271,16.021,17.349,1
9.117719,-0.4261679,4.347272,0.002443461,0.041233405,-0.017104227,-22.271,16.326,17.349,1
9.054871,-0.42197806,4.2401314,0.016798794,0.025350908,-0.020463986,-22.271,16.326,17.349,1
9.140464,-0.45370123,4.3700166,0.007941248,0.014660766,-0.040317107,-22.271,16.326,17.349,1
9.118318,-0.57400984,4.395156,0.0067195175,0.011301007,-0.021991149,-21.961,16.326,17.349,1
9.08001,-0.40043023,4.3700166,0.027488936,-0.005497787,-0.03390302,-21.961,16.326,17.349,1
9.132683,-0.39205053,4.349666,-0.03268129,0.035430185,-0.028099801,-21.961,16.326,17.349,1
9.021352,-0.42916065,4.406528,-0.08827003,-0.15485434,-0.027794369,-21.961,16.326,17.349,1
9.073426,-0.54288524,4.2413282,-0.051923547,-0.07819075,-0.02687807,-21.961,16.326,17.349,1
8.981848,-0.55006784,4.247314,-0.037873644,0.025350908,-0.025961773,-21.961,16.326,17.349,1
9.156026,-0.45250413,4.219182,-0.010079277,0.036651913,-0.02321288,-22.274,16.326,17.349,1
9.103952,-0.5291186,4.214992,-0.00580322,0.07513642,-0.009468411,-22.589,16.326,17.651,1
9.133281,-0.56682724,4.064756,-0.036957346,0.03848451,-0.01282817,-22.589,16.633,17.651,1
9.121908,-0.62129533,4.233547,0.015271631,0.013133603,-0.024129177,-22.589,16.633,17.651,1
9.11712,-0.58777654,4.347272,-0.0015271631,0.028099801,-0.040927973,-22.589,16.633,17.651,1
9.101558,-0.59974754,4.378995,0.06627888,0.022602014,-0.03390302,-22.276,16.633,17.344,1
9.065046,-0.5566519,4.26946,0.16798794,0.1133155,-0.028405234,-22.276,16.633,17.344,1
9.073426,-0.717662,4.2012253,0.0729984,0.03634648,0.020158553,-21.966,16.633,17.013,1
9.065644,-0.56802434,4.3676224,-0.10170906,0.02443461,0.010079277,-21.966,16.633,17.013,1
9.100361,-0.47884035,4.581305,-0.047036625,-0.050396383,-0.020463986,-22.296,16.633,16.697,1
8.983644,-0.47405192,4.6100354,-0.02687807,-0.06994407,-0.011301007,-22.64,16.633,16.697,1
9.011775,-0.47524905,4.5262384,-0.017104227,-0.06047566,-0.015271631,-22.984,16.961,16.697,1
9.005191,-0.7990648,4.530428,0.018325957,-0.029626964,-0.019242255,-23.358,17.265,17.001,1
9.03452,-0.6895301,4.3598413,0.009468411,-0.008246681,-0.022296581,-23.674,17.265,17.001,1
9.009381,-0.6536171,4.345476,-0.025961773,-0.032986723,-0.029626964,-23.985,17.265,17.001,1
9.057863,-0.6775591,4.4322658,-0.05009095,-0.03359759,-0.041233405,-23.985,17.265,17.329,1
9.099164,-0.6967127,4.262876,0.024129177,0.02443461,-0.034208454,-23.985,17.265,17.329,1
9.071032,-0.7164649,4.1641154,0.00580322,0.047647487,-0.039095376,-23.985,17.265,17.329,1
9.097368,-0.6799533,4.341286,0.064751714,0.019547688,-0.033292156,-23.985,17.265,17.329,1
9.063251,-0.6362591,4.255095,0.032986723,0.03756821,-0.015882496,-23.985,17.265,17.329,1
9.069236,-0.6811504,4.386776,0.015577064,0.018325957,-0.039095376,-23.985,17.265,17.329,1
9.027936,-0.6512229,4.246715,-0.020158553,0.033292156,-0.024129177,-23.634,17.265,17.329,1
9.088988,-0.61530983,4.3777976,0.038179077,0.024740042,-0.034208454,-23.007,17.265,17.018,1
9.041104,-0.6961141,4.312556,-0.03268129,0.057421334,-0.02076942,-23.007,17.265,17.018,1
9.087791,-0.6332663,4.3634324,-0.012217305,0.0030543262,-0.018020526,-23.007,17.265,17.018,1
9.018958,-0.61411273,4.2515035,-0.030543262,0.009162978,-0.014966198,-23.377,17.265,17.018,1
9.056666,-0.5955577,4.4478283,0.00030543262,-0.0076358155,-0.02443461,-23.736,17.265,17.326,1
9.065046,-0.65900403,4.398747,-0.02076942,0.025350908,-0.020158553,-23.736,17.265,17.326,1
9.072827,-0.6751649,4.4304705,-0.023823744,-0.018325957,-0.028710667,-23.736,17.265,17.326,1
9.029133,-0.6655881,4.4035354,-0.01863139,-0.015271631,-0.023823744,-23.432,17.265,17.326,1
9.130288,-0.6991069,4.321534,-0.020463986,0.0027488936,-0.029932396,-23.747,17.265,17.326,1
9.030331,-0.688333,4.353257,0.0070249503,-0.0021380284,-0.015577064,-24.078,17.265,17.326,1
9.03452,-0.7625532,4.3981485,0.030848695,0.005497787,-0.038789943,-24.078,17.265,17.326,1
9.033323,-0.760159,4.338892,0.005192355,0.032070424,-0.02565634,-23.774,17.265,17.326,1
9.048885,-0.7457938,4.370615,0.004276057,0.04062254,-0.029626964,-23.774,17.265,17.326,1
9.045294,-0.7781156,4.341286,-0.0027488936,-0.007941248,-0.033292156,-23.414,17.265,17.326,1
9.026739,-0.78290397,4.455011,-0.020158553,0.050701816,-0.038789943,-23.414,17.265,17.326,1
9.0429,-0.6895301,4.394557,-0.030543262,0.040317107,-0.03481932,-23.088,17.265,17.326,1
9.012972,-0.8002619,4.3634324,-0.008857546,-0.032986723,-0.0290161,-22.785,17.265,17.326,1
9.06744,-0.7248446,4.51726,-0.0421497,0.057421334,-0.03940081,-22.785,17.265,17.326,1
9.015965,-0.919972,4.52145,-0.00580322,0.022602014,-0.036651913,-22.785,17.578,17.022,1
8.963891,-0.58657944,4.245518,-0.006414085,0.047036625,-0.03176499,-22.785,17.578,17.022,1
9.049484,-0.7380127,4.437653,0.016798794,0.06627888,-0.041233405,-23.12,17.578,17.022,1
9.007586,-0.76195467,4.390966,-0.009162978,-0.0076358155,-0.01985312,-23.12,17.578,17.022,1
9.024344,-0.7906851,4.460996,-0.015271631,-0.0009162979,-0.035124753,-23.12,17.578,17.323,1
9.02614,-0.7751228,4.51726,-0.0143553335,0.024129177,-0.026267206,-23.12,17.578,17.323,1
8.985439,-0.78529817,4.425682,0.008246681,0.00061086525,-0.02565634,-22.787,17.578,17.323,1
8.971074,-0.8050503,4.4801497,0.008857546,0.0125227375,-0.02321288,-22.125,17.263,17.323,1
9.008782,-0.7990648,4.458602,-0.01863139,0.021380283,-0.02107485,-21.8,17.263,17.323,1
9.000402,-0.7721301,4.4777555,0.0061086523,0.013439035,-0.030543262,-21.8,17.263,17.323,1
8.961497,-0.7870938,4.505289,-0.01863139,-0.0067195175,-0.030848695,-21.8,17.263,17.323,1
9.021352,-0.8146271,4.4957123,0.015577064,0.028405234,-0.029932396,-21.8,17.263,17.323,1
8.9842415,-0.82360536,4.429273,-0.018936822,0.0015271631,-0.029321533,-21.8,17.263,17.323,1
8.929175,-0.86729956,4.4873323,-0.009468411,0.008857546,-0.025961773,-21.8,17.263,17.323,1
8.995016,-0.85054016,4.4915223,0.0009162979,0.008857546,-0.020463986,-21.8,17.263,17.323,1
9.026739,-0.85293436,4.4795513,-0.028099801,0.01282817,-0.027183503,-21.8,17.263,17.323,1
8.978855,-0.82480246,4.4262805,-0.01160644,0.0030543262,-0.033292156,-21.8,17.263,17.323,1
9.000402,-0.7870938,4.4633904,0.009162978,0.01863139,-0.018936822,-21.8,17.263,17.323,1
8.97646,-0.83856916,4.5022964,0.0030543262,0.002443461,-0.027488936,-21.8,17.263,17.323,1
8.97287,-0.86370826,4.441244,0.010995574,-0.011301007,-0.021991149,-21.8,17.263,17.323,1
8.986037,-0.81881696,4.4681787,-0.015882496,0.018020526,-0.016187929,-22.102,17.263,17.323,1
8.962694,-0.8146271,4.5274353,0.004886922,0.005192355,-0.024740042,-21.798,17.263,17.323,1
8.954913,-0.8170213,4.449025,0.0036651916,0.0027488936,-0.027488936,-21.798,17.263,17.323,1
8.969876,-0.84934306,4.506486,0.018936822,0.016187929,-0.0125227375,-21.798,17.263,17.013,1
8.939949,-0.8463503,4.5154643,0.002443461,0.0009162979,-0.030543262,-21.484,17.263,17.013,1
8.938752,-0.89543146,4.5238442,0.01038471,0.016187929,-0.029321533,-21.484,17.263,17.013,1
8.939949,-0.8655039,4.478953,0.0009162979,0.009468411,-0.020463986,-21.484,17.263,17.013,1
9.004593,-0.84575176,4.473566,0.00580322,0.022602014,-0.03481932,-21.484,17.263,17.013,1
8.973468,-0.8283938,4.481347,0.02687807,0.0076358155,-0.032986723,-21.484,17.263,17.013,1
8.987833,-0.76434886,4.4861355,0.021685716,0.014049901,-0.025045475,-21.786,17.263,17.013,1
8.972271,-0.7930793,4.5124717,0.016493361,0.006414085,-0.022296581,-22.103,17.263,17.013,1
8.986037,-0.8355764,4.5154643,0.02321288,0.0027488936,-0.022602014,-22.474,17.263,17.324,1
8.953716,-0.8242039,4.5076833,-0.0009162979,0.013439035,-0.027488936,-22.14,17.263,17.324,1
8.971074,-0.81283146,4.469376,-0.0030543262,-0.008552114,-0.036651913,-21.461,17.263,17.013,1
8.967483,-0.79367787,4.478953,-0.004276057,0.0143553335,-0.033292156,-21.461,17.263,17.013,1
8.991425,-0.8002619,4.4861355,-0.0012217305,0.0067195175,-0.03176499,-21.461,17.263,17.013,1
8.969876,-0.7398083,4.4807487,-0.0030543262,0.019242255,-0.0290161,-21.461,17.263,17.013,1
9.024943,-0.724246,4.5154643,0.003970624,0.005192355,-0.034208454,-21.461,17.263,17.013,1
8.955511,-0.74758947,4.489128,0.0015271631,0.017715093,-0.009162978,-21.461,17.263,17.013,1
8.987833,-0.8170213,4.5238442,0.00580322,0.010995574,-0.042455133,-21.461,17.263,17.013,1
8.944737,-0.78290397,4.5076833,-0.011911872,0.0030543262,-0.029932396,-21.768,17.263,17.013,1
8.990826,-0.8122329,4.570531,-0.0015271631,0.021380283,-0.020463986,-21.768,17.263,17.013,1
8.974665,-0.82360536,4.477157,-0.00030543262,0.009162978,-0.026267206,-21.467,17.263,17.013,1
8.959103,-0.8343793,4.4915223,-0.008857546,0.01282817,-0.020158553,-21.467,17.263,17.013,1
8.990228,-0.8182184,4.5274353,-0.003970624,0.02107485,-0.026267206,-21.777,17.263,17.013,1
8.9842415,-0.7661445,4.5160627,-0.014660766,0.0076358155,-0.028710667,-21.777,17.263,17.013,1
8.95611,-0.85532856,4.50888,0.021685716,0.014660766,-0.028099801,-21.777,17.263,17.013,1
8.926781,-0.85532856,4.5358152,-0.014966198,0.0012217305,-0.025350908,-21.777,17.263,17.013,1
8.917204,-0.88645315,4.5926776,-0.007941248,0.0027488936,-0.027488936,-21.777,17.263,17.013,1
8.905831,-0.87567925,4.5352163,-0.004886922,0.01038471,-0.017104227,-21.777,17.263,17.013,1
9.00579,-0.84694886,4.569334,-0.008246681,0.014660766,-0.03268129,-21.469,17.263,17.013,1
8.930372,-0.88286185,4.44723,0.0015271631,0.0021380284,-0.032070424,-21.469,17.263,17.013,1
8.978855,-0.78290397,4.5016975,0.0106901415,0.0106901415,-0.021380283,-21.469,17.263,17.013,1
8.97646,-0.8499416,4.5525746,-0.030848695,0.00580322,-0.02687807,-21.469,17.263,16.712,1
8.966884,-0.87807345,4.4981065,-0.00030543262,0.009773844,-0.02076942,-21.469,17.263,16.712,1
8.953716,-0.82599956,4.5142674,-0.005497787,0.015882496,-0.0290161,-21.469,17.263,16.712,1
8.944737,-0.8714894,4.52145,-0.011911872,0.007941248,-0.035430185,-21.469,17.263,16.712,1
8.962095,-0.8439561,4.52145,-0.00580322,0.016798794,-0.036651913,-21.162,17.263,16.712,1
8.992621,-0.8595184,4.51726,0.0015271631,0.004276057,-0.027488936,-21.162,17.263,16.712,1
8.981848,-0.8050503,4.4400473,0.0070249503,0.015577064,-0.021685716,-21.162,17.263,16.712,1
8.980052,-0.8391677,4.572925,0.018936822,0.008246681,-0.033292156,-21.162,17.263,16.712,1
8.963293,-0.8583213,4.5675383,-0.0027488936,0.0067195175,-0.016798794,-21.467,17.263,17.034,1
8.969278,-0.92416185,4.537611,-0.0030543262,0.0125227375,-0.038179077,-21.772,17.263,17.034,1
8.924387,-0.8738836,4.5459905,0.018020526,0.0009162979,-0.023518313,-21.772,17.263,17.034,1
8.981848,-0.89423436,4.52145,0.023518313,0.01740966,-0.02687807,-21.467,17.263,17.034,1
8.969876,-0.8870517,4.5633483,0.017715093,0.0021380284,-0.030543262,-21.467,17.263,17.034,1
8.953117,-0.842759,4.5340195,0.023823744,0.0106901415,-0.024129177,-21.467,17.263,16.734,1
8.963891,-0.83737206,4.6082397,0.0061086523,0.0027488936,-0.023518313,-21.467,17.263,16.734,1
8.958505,-0.86490536,4.5358152,0.019547688,0.004886922,-0.02107485,-21.772,17.263,16.734,1
8.957307,-0.8170213,4.547786,0.045814894,-0.04062254,-0.027794369,-21.772,17.263,16.734,1
8.971074,-0.8230068,4.507085,0.0033597588,-0.010995574,-0.02687807,-21.772,17.263,16.734,1
9.005191,-0.8631097,4.5543704,0.0290161,0.0033597588,-0.03145956,-21.461,17.263,16.734,1
9.030929,-0.75237787,4.5058875,0.028405234,0.00030543262,-0.02107485,-21.461,17.263,16.734,1
8.942344,-0.80445176,4.4274774,-0.01740966,-0.010079277,-0.003970624,-21.461,17.263,16.734,1
8.959702,-0.88286185,4.5100775,0.017104227,0.0012217305,-0.049480084,-21.461,17.263,16.734,1
8.979453,-0.85054016,4.5118732,-0.013133603,-0.0030543262,-0.032070424,-21.461,17.263,16.734,1
8.980651,-0.79726917,4.5795093,-0.011301007,-0.0012217305,-0.022602014,-21.461,17.263,16.734,1
8.957307,-0.85293436,4.471172,0.012217305,0.012217305,-0.029321533,-21.772,17.263,16.734,1
8.931569,-0.90261406,4.4915223,-0.00580322,0.009162978,-0.022907447,-21.772,17.263,16.734,1
8.990228,-0.87567925,4.505289,-0.0009162979,0.011301007,-0.031154128,-21.772,17.263,16.734,1
9.001001,-0.84096336,4.4999022,0.00580322,-0.0018325958,-0.025961773,-21.772,17.263,16.734,1
8.994417,-0.79966336,4.4807487,-0.009162978,0.022296581,-0.026572637,-21.772,17.263,17.034,1
8.938153,-0.87208796,4.533421,-0.01985312,0.025350908,-0.03634648,-21.458,17.263,17.034,1
8.952518,-0.89902276,4.5022964,-0.008857546,0.010995574,-0.026572637,-21.458,17.263,17.034,1
8.992023,-0.8631097,4.471172,-0.00061086525,-0.017715093,-0.021991149,-21.798,17.263,17.034,1
9.008782,-0.8870517,4.498705,0.0070249503,0.0009162979,-0.02443461,-21.798,17.263,17.034,1
8.951322,-0.8367735,4.471172,0.05131268,-0.007941248,-0.03023783,-21.496,17.263,17.034,1
9.006987,-0.8355764,4.4645877,-0.013133603,-0.0030543262,-0.028099801,-21.496,17.263,17.034,1
9.011775,-0.8870517,4.5561657,0.04917465,-0.021380283,-0.038789943,-21.496,16.958,16.719,1
8.981848,-0.82001406,4.3795934,0.0143553335,-0.06383542,-0.03848451,-21.496,16.958,16.719,1
8.987235,-0.8206126,4.4304705,0.018325957,0.01985312,-0.018936822,-21.496,16.958,16.719,1
9.015965,-0.7649474,4.583101,0.02076942,0.019547688,-0.03145956,-21.839,16.958,16.719,1
9.025542,-0.8050503,4.317344,-0.020463986,0.07788532,-0.014966198,-22.164,16.958,16.719,1
9.010578,-0.7799112,4.396353,0.01038471,0.05497787,-0.01985312,-22.494,16.958,17.033,1
9.007586,-0.7032967,4.43885,-0.030848695,0.03970624,-0.032986723,-22.796,16.958,17.033,1
8.986037,-0.8230068,4.5645456,-0.028710667,0.022907447,-0.022907447,-23.098,17.282,17.033,1
8.975264,-0.80804306,4.4364557,-0.015882496,0.046120327,-0.02076942,-23.098,17.282,17.033,1
9.018958,-0.8391677,4.4723687,0.022907447,-0.017715093,-0.022602014,-23.458,17.282,17.033,1
8.953716,-0.86131406,4.35625,0.0070249503,0.025350908,-0.035124753,-23.794,17.282,17.033,1
8.969876,-0.7224504,4.661511,-0.00580322,0.003970624,-0.027488936,-23.49,17.282,17.033,1
8.963891,-0.81402856,4.586692,-0.018325957,-0.025350908,-0.028405234,-23.19,17.604,17.033,1
8.992621,-0.83976626,4.4921207,-0.032070424,-0.009162978,-0.02565634,-23.19,17.604,16.731,1
8.968081,-0.80924016,4.471172,-0.02321288,-0.026267206,-0.029626964,-23.19,17.604,17.048,1
8.985439,-0.82480246,4.4903255,0.020158553,0.03023783,-0.021380283,-23.49,17.604,17.048,1
9.036316,-0.8355764,4.321534,0.00030543262,0.027794369,-0.032375857,-23.49,17.604,17.048,1
9.000402,-0.825401,4.4639893,0.007330383,-0.00030543262,-0.029932396,-23.17,17.604,17.048,1
9.014768,-0.8798691,4.421492,0.025045475,0.0027488936,-0.027183503,-22.86,17.604,17.048,1
9.01776,-0.82779527,4.39336,0.02565634,0.0036651916,-0.02443461,-22.86,17.604,17.048,1
9.016563,-0.8062474,4.577115,0.012217305,0.009468411,-0.030848695,-22.86,17.604,17.048,1
8.959103,-0.9115923,4.5394063,0.017715093,0.007330383,-0.018020526,-22.86,17.604,17.048,1
8.998009,-0.7990648,4.3664255,0.015271631,0.018325957,-0.03970624,-22.86,17.604,17.048,1
8.963293,-0.87927055,4.455011,-0.0027488936,0.010995574,-0.03390302,-22.86,17.604,17.048,1
9.0315275,-0.83378077,4.4280763,0.022296581,0.010079277,-0.02687807,-22.86,17.292,17.048,1
9.017162,-0.7870938,4.4244847,-0.009773844,0.015882496,-0.02565634,-22.86,17.292,17.048,1
9.018359,-0.8122329,4.498705,0.020463986,0.02565634,-0.025961773,-22.86,17.292,17.048,1
8.97287,-0.80325466,4.4017396,0.005192355,-0.0030543262,-0.023823744,-22.541,17.292,17.048,1
9.009381,-0.84096336,4.4316673,-0.026267206,0.0125227375,-0.029626964,-22.541,17.292,17.048,1
8.986037,-0.770933,4.501099,0.007330383,0.003970624,-0.023518313,-22.541,17.292,17.048,1
8.953716,-0.80205756,4.4298716,0.026267206,0.010995574,-0.017715093,-22.541,17.292,17.048,1
8.942344,-0.82121116,4.509479,0.010079277,-0.019242255,-0.0290161,-22.541,17.292,17.048,1
8.961497,-0.8367735,4.5657425,0.048563786,0.004581489,-0.024740042,-23.168,17.292,17.048,1
8.921394,-0.85413146,4.459201,0.0030543262,0.036957346,-0.02565634,-23.168,17.292,17.048,1
9.004593,-0.85772276,4.401141,-0.112399206,0.03604105,-0.042760566,-22.787,17.292,17.048,1
9.011177,-0.7793127,4.4927197,-0.11178834,-0.06841691,-0.06414085,-22.056,16.992,17.048,1
8.933964,-0.6715736,4.392163,-0.12156218,-0.05009095,-0.058948494,-21.714,16.992,17.048,1
-1.6412252,3.4488475,6.213552,-0.006414085,0.03848451,-0.03726278,15.943,-3.291,1.44,1
-3.342904,4.289212,7.073669,-0.03726278,-0.15790866,-0.3915646,18.066,-3.947,-0.891,1
-4.244321,3.899556,8.892065,-0.086437434,-0.09773844,-0.18753563,18.385,-3.633,-0.57,1
-5.921459,1.1851299,13.442844,-0.8582657,1.0143417,1.7385225,18.801,-3.633,-0.933,1
-4.561553,0.10115502,9.551069,-0.16768251,1.3607023,2.20278,22.438,-3.633,-1.243,1
0.207697,1.4137762,5.771822,0.052839845,0.65301496,2.5802948,24.542,-5.093,-0.941,1
1.8561049,2.961029,6.060323,-0.16249016,0.36132678,2.3915374,24.542,-8.697,-0.604,1
1.6753427,4.6255975,9.337387,0.005192355,0.01038471,1.582141,24.903,-9.765,-0.276,1
2.0159178,4.96318,9.466075,0.48624873,-0.26206118,0.7470882,23.481,-11.003,-0.576,1
-0.08619126,3.4488475,12.964004,0.12950343,0.22235495,0.19333886,22.448,-12.59,-0.576,1
0.44831428,3.620033,7.1592617,0.7107417,0.2144137,0.009162978,22.087,-15.393,-0.23,1
-0.7320272,3.0095115,8.382699,0.058948494,0.43493605,0.011911872,22.087,-16.424,0.485,1
-0.6278794,3.5535939,5.249287,0.2843578,0.23335053,0.08307768,22.729,-17.413,1.148,1
-1.0001777,4.0096893,5.7335143,0.2452624,0.52442783,0.34300083,22.729,-18.374,1.837,1
-1.4754268,4.131195,7.99005,-0.013744468,0.82344633,0.66981375,22.729,-19.082,2.203,1
-1.395221,5.093664,7.7548194,-0.0061086523,0.8268061,0.8741482,22.729,-20.182,3.25,1
-2.710835,3.6164417,10.691308,-0.8579602,0.9828822,1.2119566,22.729,-20.512,3.601,1
-1.3263878,4.3418846,7.7997108,-0.24801129,0.66675943,0.9987647,22.729,-20.512,3.601,1
0.25019407,4.1814733,8.333019,-0.37720928,0.48075095,0.93401295,21.986,-20.512,3.288,1
0.075417355,4.4502225,7.9307933,0.03176499,-0.05467244,0.2012801,21.606,-20.832,2.655,1
0.35434186,4.374805,8.078635,0.21074851,-0.29016098,-0.2724459,21.276,-21.189,2.655,1
0.14724341,5.617396,8.389283,0.28344148,-0.7901542,-0.8732319,20.959,-21.81,2.992,1
1.5658079,3.7421372,9.987412,0.118202426,-0.8695667,-1.0054842,20.959,-22.129,2.992,1
0.8110358,3.7606924,8.102577,0.7281514,-1.2525792,-1.7299703,20.959,-22.445,2.992,1
1.0175357,4.38917,8.015189,0.27580565,-1.2605205,-1.4086553,20.959,-23.133,2.992,1
-0.7320272,3.9456444,6.880337,0.4156938,-1.2159272,-1.4456125,20.959,-23.899,2.992,1
-1.3180081,5.053561,6.704962,0.539394,-0.9868528,-1.2519683,20.959,-23.899,2.69,1
-1.714847,5.6682725,7.01142,0.57696223,-0.23182335,-0.56382865,21.293,-24.201,2.69,1
-1.809418,4.968567,6.153697,0.13622294,0.17195857,-0.40500367,21.974,-24.9,3.346,1
-2.0458453,7.0587053,5.2247467,0.04642576,0.32711834,-0.505491,22.72,-25.527,3.778,1
-2.2870612,7.1634517,6.7690067,-0.14569137,0.41172317,-0.17287487,23.757,-25.527,4.081,1
-2.5270798,6.63134,6.39611,-0.004276057,0.39187005,0.12461651,24.134,-25.527,4.081,1
-1.638831,6.4338183,6.10282,-0.053450707,0.2779437,0.14630222,24.47,-25.195,4.081,1
-1.7256209,7.102998,5.9280434,0.20799962,0.27275133,0.1469131,24.778,-25.195,3.779,1
-1.6472107,7.8505874,6.421249,0.106901415,-0.071776666,0.26145032,25.096,-25.552,3.779,1
-0.16699557,5.4246626,7.566276,-0.49388456,-0.00030543262,0.35918877,25.398,-25.856,3.779,1
-0.21068975,6.187814,7.335834,-0.5164866,0.14263703,0.4007276,25.398,-25.856,3.779,1
-1.0767922,5.8622026,7.0844426,-0.23365596,0.226631,0.33475417,25.073,-25.856,3.065,1
-0.5315128,5.5790887,5.7137623,0.108123146,0.26267207,0.52106804,24.726,-25.553,2.412,1
1.0001777,5.734113,5.2385135,-0.18936823,0.23151793,0.700357,24.411,-25.25,2.412,1
1.3251907,6.0758853,6.4386067,-0.59895337,0.30695978,0.43860126,24.081,-25.25,1.678,1
0.27353755,6.807314,7.2113357,-0.56413406,0.3417791,0.28313604,23.739,-25.25,0.877,1
0.046686932,6.5511346,8.313267,-0.20219639,0.28191432,0.4896085,23.437,-24.542,0.019,1
-0.52732295,6.163274,7.307702,0.13164146,0.5271767,0.65301496,23.437,-24.186,-0.668,1
-1.2665327,6.364985,6.501455,-0.19303341,0.77457714,0.88331115,23.437,-24.186,-0.668,1
-2.6126726,4.3161473,10.1143055,-0.54733527,0.43066,0.6597345,23.437,-24.186,-0.346,1
-3.9827545,4.2461166,6.801927,0.35521814,0.89919364,0.7696902,23.437,-24.186,-0.346,1
-1.0145429,3.804985,6.5720835,-0.13805555,0.64996064,1.2144,23.437,-24.186,-0.346,1
-0.65421563,5.2941785,5.691616,-0.112704635,0.5027421,0.54367006,23.437,-24.87,-0.045,1
-1.7699136,4.8763905,7.6440873,-0.37018433,0.32284227,0.4810564,23.437,-24.87,-0.045,1
-1.4915876,5.9687448,6.9132576,-0.08857546,0.18051068,0.34666604,23.437,-24.87,-0.045,1
-0.39085343,6.311714,6.071097,0.11362094,0.13439035,0.5204572,23.744,-24.87,-0.045,1
2.5318682,6.661866,6.4601545,-0.09285152,-0.4279111,0.3210097,23.408,-25.178,-0.427,1
1.0187328,7.2406645,9.131485,-0.24801129,-0.591623,-0.4428773,22.75,-25.479,-0.736,1
0.02633622,5.8382607,10.737396,-0.09468412,-0.829555,-0.70829827,22.056,-25.479,-1.425,1
-0.32920274,4.4220905,7.303512,0.7360926,-0.84207773,-0.91232723,21.74,-24.865,-2.188,1
-0.22804771,4.3089647,6.651691,0.14385876,-0.34788775,-0.75411314,21.74,-25.181,-2.188,1
-0.18674773,3.8061821,8.467094,-0.053450707,-0.25870144,-0.5354234,22.085,-25.509,-2.188,1
0.037708677,4.7363296,5.1265845,0.21594086,-0.23823744,-0.5687156,22.84,-25.509,-1.875,1
-0.49559975,5.740697,5.2660465,0.10842858,-0.014966198,-0.44440445,23.155,-25.509,-1.875,1
-0.56802434,6.30932,7.028179,-0.13500121,0.18845193,-0.08093964,23.797,-25.509,-1.875,1
-1.4431051,6.157288,11.501146,-0.88422745,0.18417588,0.09682214,24.554,-25.509,-2.194,1
-4.060566,4.4717703,11.926117,-0.36651915,0.30848694,0.08032878,25.305,-24.824,-3.373,1
-3.1705215,3.7565024,5.4504004,0.81000733,0.65393126,0.65087694,25.976,-24.501,-3.674,1
-0.12868834,3.982156,4.5621514,0.13041973,0.35002577,1.1435398,26.298,-25.195,-3.674,1
0.45310268,5.067328,5.0463786,0.002443461,0.1881465,0.6960809,25.991,-26.264,-2.61,1
0.12150574,5.7562594,7.2783732,-0.2782491,0.05955936,0.35643986,24.899,-27.413,-2.223,1
-0.42078096,7.4842744,7.5944076,-0.047036625,-0.074830994,0.101098195,24.224,-27.717,-2.223,1
1.8471266,7.4082584,9.937134,-0.46975538,-0.34391713,0.16615535,23.904,-27.717,-3.318,1
1.2437878,4.955399,8.419808,0.17104226,-0.46303585,-0.18020524,23.249,-27.005,-4.101,1
0.35913026,2.930503,7.5309615,-0.01282817,-0.20372356,-0.51893,22.622,-26.678,-4.734,1
-0.2885013,3.769072,5.507861,0.116980694,-0.13255776,-0.75655663,22.622,-26.678,-4.734,1
-1.2473791,5.5527525,5.9687448,-0.004276057,0.04428773,-0.61178154,23.423,-26.373,-5.065,1
-0.89423436,5.905897,7.5148005,-0.07941248,0.092240654,-0.067500606,24.537,-25.77,-5.065,1
-0.56682724,6.4008985,7.928399,0.076358154,0.15393804,0.09468412,24.908,-25.129,-5.065,1
-3.1962593,3.0951042,15.907076,-1.5329664,0.55863625,0.36987892,25.556,-24.766,-5.065,1
-3.945046,3.4865563,7.501034,0.39767328,0.4111123,0.15424347,25.556,-23.654,-5.766,1
-0.9923966,4.012682,5.4563856,0.50701815,0.10323623,0.675617,25.926,-23.283,-5.766,1
1.0055647,4.663306,4.0863037,0.3567453,-0.1853976,0.52870387,25.926,-23.67,-5.075,1
0.75836337,5.9023056,6.693589,-0.0070249503,-0.31429017,0.08277224,25.537,-23.994,-4.353,1
-0.21308395,6.646304,9.595961,0.15515977,-0.04734206,-0.14630222,24.827,-24.336,-4.013,1
0.13108255,6.4362125,10.055647,-0.32498032,0.024740042,-0.13530666,24.507,-24.336,-4.013,1
1.9327193,4.5860934,5.7454853,0.4260785,-0.589485,-0.25320363,24.507,-23.944,-4.013,1
-0.11552023,3.359065,6.9545574,0.022907447,-0.36285394,-0.63407815,24.507,-22.796,-4.013,1
-0.23702596,4.6034513,6.143522,0.09285152,-0.19272798,-0.64751714,25.158,-21.621,-4.353,1
-0.33997664,5.3941364,6.4487824,0.030543262,-0.26633725,-0.4202753,25.874,-20.474,-4.667,1
-0.27593175,6.534375,6.285378,0.23487769,-0.2773328,-0.20616703,26.95,-19.801,-4.667,1
-1.0947487,6.955156,6.89171,0.16432275,0.037873644,0.12461651,27.281,-19.801,-4.667,1
-2.984971,2.9550436,13.936648,-0.5992588,0.72326446,0.27947086,27.281,-19.801,-4.667,1
-2.3080103,4.470573,6.363788,0.20066923,0.73761976,0.40469822,27.281,-20.115,-4.667,1
0.75836337,5.6700683,4.381389,-0.16982053,0.20250183,0.713796,27.281,-20.425,-5.293,1
1.127669,5.367202,6.8653736,-0.44318274,-0.33414328,0.6258314,26.977,-20.745,-5.975,1
0.9756372,5.6365495,7.780557,0.010079277,-0.29168814,0.23884831,25.535,-20.442,-8.197,1
1.1348516,7.361572,8.104971,0.4392121,0.008246681,-0.28099802,24.464,-20.115,-8.627,1
0.2633622,5.298967,13.927072,-0.8897252,0.14782938,-0.053145275,24.464,-20.115,-8.943,1
2.4702177,4.0827127,5.068525,0.63132924,-0.7706065,-0.19608775,24.464,-20.115,-8.943,1
1.1270704,3.6332011,7.1125746,-0.008552114,-0.36987892,-0.6072,24.464,-20.115,-9.611,1
0.7428011,5.189432,6.7600284,-0.087659165,-0.38056904,-0.70738196,23.834,-20.115,-10.313,1
0.34476504,5.8987145,6.711546,-0.038179077,-0.32498032,-0.5164866,23.834,-19.79,-11.408,1
0.109534726,6.615778,6.8839283,0.29749137,-0.12675454,-0.27885997,24.143,-19.43,-11.727,1
-0.076015905,7.0928226,7.331644,0.1554652,-0.08552113,-0.035124753,24.8,-19.43,-12.083,1
-2.408567,4.935647,10.433332,-0.29779682,0.3491095,0.052839845,25.514,-19.43,-12.083,1
-1.9536686,5.020641,6.783372,0.30665436,0.6603453,0.32375857,26.905,-19.43,-12.391,1
0.39324763,5.964555,4.621408,0.07941248,0.3051272,0.54092115,28.067,-20.445,-12.391,1
0.025139118,6.6391215,4.734534,0.093767814,0.23304509,0.39400807,29.197,-21.501,-12.063,1
-0.26156655,6.7085533,6.941988,-0.03481932,-0.05131268,0.25717425,29.508,-22.65,-11.657,1
0.050876785,7.7171106,6.9826894,0.27214047,-0.21624629,0.0021380284,29.508,-23.706,-11.334,1
1.2904748,7.493851,7.077859,-0.23609942,-0.10995574,0.1001819,29.508,-24.461,-11.334,1
1.8626889,5.9292407,5.7784057,0.35521814,-0.4465425,-0.24556783,28.863,-25.076,-11.334,1
1.1091139,4.784812,6.6079965,-0.2144137,-0.10170906,-0.48838675,28.523,-25.386,-11.334,1
0.2825158,5.3941364,6.6044054,-0.16707164,-0.1704314,-0.6478226,28.523,-25.386,-12.045,1
0.41240123,6.0687027,5.765238,-0.19792034,-0.21594086,-0.44226643,28.906,-25.386,-12.351,1
0.08140286,6.6522894,6.823475,-0.079107046,-0.052534413,-0.28069258,29.287,-24.684,-12.977,1
-0.3824737,6.7318964,8.465898,-0.0015271631,-0.09407325,-0.10598512,29.606,-24.359,-12.977,1
-2.4690206,5.959168,8.497022,-0.23243423,0.1994475,-0.062002823,29.939,-24.359,-12.977,1
-1.8860323,5.2259436,7.0275807,0.32650748,0.116980694,0.20433442,29.939,-24.676,-12.648,1
-1.9422961,5.0146556,7.937377,-0.059864793,0.5390886,0.51923543,29.939,-25.366,-12.249,1
0.26036942,5.8442464,5.0559554,0.07513642,0.1685988,0.59559363,29.939,-26.548,-11.578,1
-0.33279404,5.997475,6.501455,-0.122478485,0.14263703,0.5039638,29.565,-27.63,-11.268,1
-0.108936176,6.541558,7.033566,0.045814894,-0.040317107,0.23762658,28.474,-28.665,-10.964,1
-0.0053869537,7.510012,6.7947445,0.2312125,-0.09193522,0.055588737,27.389,-29.309,-10.964,1
0.3669114,7.4310036,8.066066,-0.16126843,0.07147124,0.11636983,26.161,-30.035,-10.964,1
1.8722657,5.817312,6.118981,0.24862215,-0.38423425,-0.026267206,24.987,-30.035,-10.964,1
2.5312698,5.5312047,5.7125654,0.083383106,-0.23090707,-0.20830505,23.82,-30.335,-10.589,1
1.1468226,5.185242,7.4351935,-0.28985557,-0.102319926,-0.47525316,23.146,-30.335,-10.273,1
1.287482,5.779603,5.786187,-0.027794369,-0.43401974,-0.49205196,22.827,-30.033,-10.601,1
1.0223241,6.033987,7.0832458,-0.11911872,-0.1872302,-0.33475417,22.827,-29.676,-10.946,1
0.6266823,6.4643445,7.3148847,-0.037873644,-0.23854288,-0.21135938,22.525,-29.359,-10.946,1
0.2112883,7.059902,6.7851677,0.17531833,-0.03359759,-0.19608775,22.215,-29.359,-10.946,1
-1.8405426,6.1866174,8.180388,-0.15790866,0.6044512,-0.09315695,22.215,-29.66,-10.946,1
-1.3994108,5.353435,6.3111157,0.2837469,0.4343252,-0.087659165,22.895,-29.983,-10.946,1
-1.7884687,5.7724204,6.4721255,0.16157386,0.67164636,0.26908615,23.689,-30.302,-10.202,1
0.07062895,6.0531406,6.35062,-0.15241088,0.24862215,0.47250426,24.404,-30.639,-9.461,1
-0.011971008,6.5086374,5.585074,-0.08277224,-0.021685716,0.2666427,24.404,-30.979,-9.107,1
-0.5141548,6.467337,6.2530565,-0.06169739,-0.12034045,0.10842858,23.75,-30.979,-9.429,1
-0.6733692,6.6989765,6.033388,0.012217305,-0.14935656,-0.061086524,23.107,-30.979,-9.429,1
-0.025737667,7.043143,6.3829417,0.029321533,-0.26908615,-0.086132,22.439,-30.979,-9.429,1
1.06123,7.727885,7.3220673,0.09896017,-0.5555819,-0.13897185,21.311,-30.979,-9.429,1
1.3491327,7.098808,7.2610154,0.018020526,-0.59498274,-0.30390546,20.257,-30.979,-9.046,1
0.9283517,5.2516813,6.585252,0.39278635,-0.6630942,-0.52290064,18.907,-30.979,-9.046,1
1.1336545,5.2528787,5.834071,0.067500606,-0.50488013,-0.6072,17.73,-31.283,-8.328,1
0.47225627,5.1200004,7.690176,-0.32895094,-0.45265114,-0.569021,17.098,-31.596,-8.016,1
0.11611878,6.1704564,5.3564277,-0.08246681,-0.3145956,-0.54519725,16.781,-31.596,-8.016,1
-0.01436521,6.429629,6.3967085,-0.19883664,-0.10354166,-0.25595254,16.781,-31.231,-8.016,1
0.12928689,6.530185,6.8587894,-0.15668693,-0.03359759,-0.011911872,16.781,-30.564,-8.712,1
-0.30226797,6.5846534,6.7450647,-0.034208454,0.14721853,0.029932396,16.781,-30.236,-9.017,1
-0.37828386,7.0383544,6.8330517,0.03481932,0.5109888,0.16707164,16.781,-29.92,-9.324,1
-0.108337626,6.871359,7.368156,-0.076358154,0.74006325,0.3042109,17.439,-29.92,-9.016,1
-1.6394296,4.9344497,8.8364,-0.2012801,0.5839872,0.24709499,18.472,-29.617,-9.016,1
-1.401805,5.4288526,5.433042,0.32925636,0.5354234,0.36285394,19.473,-29.273,-9.016,1
-0.7038953,5.2516813,8.049905,-0.27030787,0.5384777,0.64996064,19.844,-29.273,-8.346,1
0.142455,6.2261214,5.6700683,-0.12308934,-0.054061573,0.45906523,20.15,-29.273,-8.346,1
-0.40222588,6.2009826,6.319495,-0.18387043,-0.11453723,0.18081611,19.488,-28.614,-8.029,1
-0.65900403,6.2769985,6.5666966,-0.103847094,-0.22327125,-0.06841691,18.513,-28.271,-8.403,1
-0.45010993,6.6612678,6.589442,-0.03573562,-0.43035457,-0.065973446,17.883,-27.589,-8.731,1
-0.32321724,6.583456,7.3968863,-0.02443461,-0.4364632,-0.02443461,17.097,-27.262,-8.731,1
1.122282,7.620744,7.0102224,0.2843578,-0.5656612,-0.12461651,16.453,-26.933,-8.398,1
-0.16340427,5.8454432,9.479243,-0.20311269,-0.20891592,-0.30848694,15.391,-26.618,-7.78,1
0.9684546,5.015254,5.391144,0.43554693,-0.5030475,-0.28160888,14.445,-26.618,-7.78,1
1.3563153,5.415684,6.0088477,-0.016798794,-0.15454891,-0.2761111,14.141,-26.618,-7.476,1
0.6757634,5.3157263,8.018182,-0.31337386,-0.035124753,-0.24587326,13.815,-26.29,-7.138,1
0.8451532,6.1507044,5.723339,-0.0290161,-0.10781772,-0.09437868,14.115,-25.653,-7.138,1
1.2635399,6.011242,6.541558,-0.20433442,0.087659165,0.09590584,14.115,-24.923,-7.138,1
1.2150574,5.9609637,6.5948286,-0.19394971,0.020463986,0.12705997,14.437,-24.256,-7.44,1
0.7541735,6.2345014,6.623559,-0.07513642,0.1826487,0.03604105,14.437,-23.933,-7.44,1
0.24301147,6.494272,7.2101383,0.007941248,0.36743546,0.16065755,15.119,-23.251,-7.44,1
0.6733692,6.7887588,6.3787518,0.2049453,0.63255095,0.35216382,15.843,-22.601,-7.44,1
-0.3705027,5.0439844,9.403826,-0.5888741,0.7858781,0.3200934,17.07,-22.212,-7.44,1
-0.5410896,4.6860514,6.3721676,0.2171626,0.3036,-0.0027488936,18.508,-21.501,-7.44,1
-1.2336124,5.1517234,7.041946,-0.029626964,0.5910121,0.29901853,19.784,-20.555,-7.107,1
0.05686229,4.8536453,7.826047,-0.3100141,0.06414085,0.44409904,20.933,-20.23,-7.107,1
-0.45429978,5.587468,6.1758432,-0.032375857,-0.09468412,-0.039095376,21.255,-19.908,-6.803,1
-0.90979666,5.4312468,6.6870055,-0.1957823,-0.07422013,-0.21197024,21.557,-19.215,-6.803,1
-1.1468226,5.873575,7.0383544,-0.102319926,-0.24770586,-0.24495697,21.557,-18.861,-6.803,1
-0.15263036,5.8885393,7.2783732,-0.0729984,-0.48808134,-0.13133603,21.557,-18.211,-6.803,1
0.077811554,5.841852,7.813477,0.1432479,-0.62980205,-0.3145956,20.912,-17.909,-7.113,1
0.8074445,6.843227,7.171831,0.5510005,-0.5867361,-0.44135013,20.196,-17.909,-7.113,1
-1.0905589,5.1038394,11.003153,-0.20311269,-0.3472769,-0.48349985,19.555,-18.214,-7.113,1
0.18794483,4.349067,6.177639,0.6078109,-0.47678033,-0.30634892,19.244,-18.521,-6.712,1
0.7565677,4.2521024,6.5864487,0.08552113,-0.38637227,-0.0852157,18.908,-19.194,-6.407,1
-0.15861586,4.2281604,8.664616,-0.37934732,0.12186762,-0.04428773,18.908,-19.515,-6.057,1
0.9708488,5.1918263,6.0106435,-0.15485434,-0.13683382,-0.004276057,18.585,-19.515,-6.057,1
0.30107087,5.697003,7.259818,-0.31612277,0.11942416,0.20097467,18.585,-19.14,-6.057,1
0.9516952,5.2103815,7.503428,-0.5448918,0.24556783,0.61178154,18.585,-18.429,-6.057,1
1.1947067,4.775235,7.8236527,-0.27855456,0.3567453,0.48288897,18.585,-17.314,-6.39,1
0.53689975,5.189432,7.6847887,-0.19303341,0.51068336,0.39706242,18.585,-16.685,-6.712,1
0.9463082,5.240309,7.669825,-0.19303341,0.573297,0.59498274,19.258,-16.072,-6.712,1
0.6979098,4.8602295,8.696938,-0.40653083,0.7315111,0.56291234,20.262,-15.753,-6.712,1
0.61052144,5.620987,8.104373,0.100792766,0.4978552,0.43890667,20.95,-15.428,-6.712,1
-0.93613285,4.1437645,8.805874,-0.2950479,0.6411031,0.33200526,22.067,-15.428,-6.399,1
-0.17357962,3.2004492,7.24665,0.30390546,0.31398472,0.032375857,23.168,-15.428,-6.053,1
-1.6184803,3.6541502,6.754043,0.14966199,0.4700608,-0.048563786,23.922,-15.428,-5.409,1
-0.7721301,3.7762547,9.486425,-0.61575216,0.02107485,-0.029321533,25.012,-15.428,-4.771,1
-0.8912416,4.617218,7.7745714,0.06261369,-0.21899518,-0.42332962,25.346,-15.428,-4.771,1
-1.7232267,3.6272156,8.005612,0.020158553,-0.23335053,-0.58184916,25.656,-14.753,-4.771,1
-1.869273,4.039018,7.543531,0.051923547,-0.2779437,-0.623388,25.656,-14.411,-4.771,1
-1.5251064,4.699219,7.6524673,0.03023783,-0.410196,-0.5699373,25.656,-13.764,-4.452,1
-1.6819267,4.644751,8.271967,0.06627888,-0.54733527,-0.51251596,25.346,-13.429,-4.452,1
-1.4550761,4.9703627,8.391677,0.30848694,-0.65057147,-0.5522222,24.972,-13.122,-4.774,1
-0.83737206,5.7029886,8.3072815,0.49174652,-0.75747293,-0.5476407,23.902,-13.122,-5.099,1
-1.1186907,3.9606082,9.509769,0.14080444,-0.37048978,-0.37507126,22.695,-13.427,-5.099,1
0.12270284,3.9474401,6.443994,0.52106804,-0.34147367,-0.22235495,21.9,-14.111,-5.099,1
0.55006784,4.0617633,7.1383123,0.0852157,-0.27152961,-0.1777618,21.185,-14.849,-4.782,1
-0.24001873,4.3915644,8.453926,-0.23976462,-0.025045475,-0.1328632,20.487,-15.536,-4.432,1
-0.08619126,4.791396,7.183802,-0.049785517,-0.082161374,0.102319926,20.487,-15.536,-4.116,1
0.29448682,5.17387,6.905476,-0.00580322,0.057726767,0.27672195,20.487,-15.187,-4.116,1
0.7457938,4.787805,7.752425,-0.18875736,0.13805555,0.38453966,20.185,-15.187,-4.441,1
