ax,ay,az,gx,gy,gz,mx,my,mz,user
-0.9331401,2.6384103,10.912771,-0.02321288,-0.14966199,0.5852089,-15.451,5.096,-30.882,1
1.638831,1.1683705,11.122264,-0.23060162,-0.099265605,0.4792238,-6.216,1.44,-34.834,1
0.8750807,2.598906,8.865729,0.5128214,-0.4831944,0.267559,-7.386,1.074,-34.889,1
-1.1923125,1.8423382,7.656657,-0.22143865,0.7339546,0.18081611,-7.498,1.321,-35.194,1
-1.1623849,2.4558525,9.522937,0.03726278,0.4251622,0.45448375,-7.128,1.321,-35.194,1
-0.57760113,1.8106151,10.66138,-0.4456262,0.15851954,0.10140363,-6.39,1.696,-35.533,1
0.36631286,3.1866825,10.58297,0.029626964,0.16218472,0.42271876,-6.056,2.738,-36.151,1
0.94211835,4.332308,8.604761,-0.009773844,-0.44715336,0.4981606,-5.413,2.738,-36.151,1
-0.5117606,2.3906105,9.304466,-0.086437434,0.022907447,0.45112398,-5.11,2.738,-36.462,1
1.62686,3.1675289,10.516531,0.36285394,-0.5360342,0.19822577,-5.43,2.738,-36.462,1
0.5327099,3.0137014,8.124723,-0.5726862,0.12492194,-0.0711658,-6.419,2.009,-36.462,1
1.6118963,3.7110126,9.101558,0.22968534,-0.32436943,-0.11026118,-7.109,1.701,-36.462,1
0.37110126,3.264494,8.732252,-0.5036584,0.77396625,-0.059253927,-7.109,1.701,-36.138,1
0.6410475,2.8113914,9.692925,-0.28099802,-0.13805555,0.0888809,-6.771,2.001,-36.138,1
0.5129577,3.1052797,8.811859,0.09560041,-0.29993483,-0.07360926,-6.451,2.676,-36.138,1
0.56982,2.4139538,9.390059,-0.008552114,0.10354166,-0.026267206,-6.451,2.676,-36.138,1
0.44831428,2.5797524,8.76996,0.13103059,0.03848451,0.07147124,-6.451,2.676,-36.138,1
0.84335756,2.9508536,9.056067,-0.20189096,-0.14569137,0.13316862,-6.143,2.676,-36.454,1
0.6955156,2.8688521,8.920197,-0.11789699,-0.10323623,0.0015271631,-6.143,2.676,-36.454,1
0.8702923,3.044826,7.9571295,0.3539964,0.46517387,0.029626964,-6.143,2.676,-36.454,1
0.17417817,2.6635494,10.287286,-0.2761111,-0.28496864,-0.15699236,-6.143,2.676,-36.454,1
0.57161564,2.5971103,9.5798,0.02565634,0.1432479,-0.10751228,-6.143,2.676,-36.454,1
0.7068881,2.697667,8.217499,-0.080634214,-0.06841691,-0.00030543262,-6.445,2.676,-36.454,1
0.55844754,2.633622,8.631097,0.081855945,0.516792,-0.09743301,-6.445,2.992,-36.454,1
0.7966706,2.8048072,9.5732155,-0.18020524,-0.21319197,0.22449298,-6.076,2.992,-36.454,1
0.88765025,2.8790276,8.192958,0.23518312,-0.09132435,0.22235495,-5.769,2.992,-36.454,1
2.0913353,2.6725276,10.465055,-0.058643065,0.15699236,0.2996294,-5.769,2.992,-36.454,1
-0.45070848,2.5210943,7.6907744,0.39645153,0.32711834,-0.40103304,-5.45,2.992,-36.795,1
-0.43275195,2.0620062,6.547543,0.112704635,-0.4343252,-0.3118467,-5.114,2.659,-36.795,1
-0.24301147,2.6952724,7.4842744,-0.5332854,-0.8170323,0.12003502,-5.972,2.325,-36.795,1
1.9297266,4.9799395,11.064803,0.5885687,1.0164797,0.23884831,-7.244,2.012,-36.474,1
1.1558008,2.939481,10.746374,-0.3866777,0.2666427,-0.226631,-7.595,1.661,-36.164,1
-0.23882163,2.48578,7.8571715,0.28863382,1.3041973,-0.18142697,-7.557,1.339,-36.164,1
1.988983,2.9442697,7.5507135,-0.26542094,0.024129177,-0.19394971,-6.408,1.019,-36.492,1
-1.134253,2.047641,10.809821,-0.46883908,0.689056,-0.16310102,-4.824,1.019,-36.853,1
-0.93493575,3.0364463,7.9972324,1.4776831,-0.679893,-0.18325958,-3.894,1.319,-37.168,1
-0.038905777,4.016872,6.5110316,-0.09682214,-0.47433686,-0.022296581,-3.894,0.439,-37.168,1
1.174356,5.430648,10.00477,0.9477574,0,0.23732115,-4.994,0.08,-36.846,1
-0.8619126,1.3221979,8.349778,-3.0155363,0.8979719,-0.1020145,-4.994,-0.282,-36.846,1
0.9756372,0.7727286,9.944916,-0.7089091,-0.002443461,0.9108001,-5.299,5.747,-36.846,1
0.40222588,1.851915,8.851364,0.72051555,-0.14569137,0.23518312,-6.016,4.739,-36.846,1
-0.12808979,1.751957,11.097125,0.87964594,0.8866709,1.9669861,-6.332,5.128,-36.846,1
1.1641805,3.4033577,9.351153,0.39370266,-0.2049453,-0.4792238,-6.332,4.096,-36.846,1
0.54527944,2.2852654,9.921572,0.39400807,0.15882497,-0.27275133,-5.656,2.122,-37.159,1
0.2172738,3.627814,8.189367,-0.56779927,0.49021935,0.24953845,-4.957,1.28,-37.159,1
0.6781576,3.3183637,8.88608,-0.18234327,-0.36041048,-0.10048734,-4.586,0.907,-37.159,1
0.30885202,2.9825768,9.485827,-0.0143553335,0.05009095,-0.036957346,-4.284,1.24,-37.159,1
-0.0796072,2.630629,8.95611,0.08735373,0.007330383,-0.034208454,-4.284,1.589,-37.159,1
0.219668,3.17531,8.740632,0.16035213,-0.0027488936,-0.028710667,-4.612,1.589,-37.159,1
0.044292733,3.071761,8.850765,-0.24007004,0.12064589,-0.00061086525,-4.943,1.589,-37.159,1
0.20051439,2.7371712,9.099762,-0.32253686,-0.04062254,0.03573562,-5.258,1.91,-37.159,1
-0.17058687,2.4187422,9.427768,-0.59223384,0.2657264,0.019242255,-5.561,2.575,-37.159,1
0.050876785,2.1146786,9.6767645,-0.53878313,0.20799962,0.015271631,-5.561,4.119,-37.159,1
-0.4189853,1.3988123,9.87668,-0.0125227375,-0.22143865,-0.44440445,-4.942,4.908,-37.159,1
-0.47644615,1.6065093,9.017162,0.007941248,0.092240654,-0.082161374,-4.328,5.259,-37.159,1
-0.21906945,1.8088194,9.4457245,-0.1740966,0.119729586,0.035430185,-4.328,5.259,-37.159,1
-0.20350714,1.6376339,9.947908,0.15515977,-0.11178834,-0.040011674,-4.013,5.259,-37.159,1
-0.48961425,1.7764976,9.210494,0.2452624,-0.04337143,0.01985312,-3.707,5.259,-37.159,1
-0.02633622,2.184709,8.813655,0.099265605,0.043982297,0.0033597588,-3.707,5.259,-37.159,1
-0.32621,2.1865046,9.041702,0.13622294,0.0076358155,0.04917465,-3.707,4.94,-37.159,1
-0.15023616,2.1631613,9.330803,-0.0842994,-0.059864793,-0.052534413,-3.707,4.637,-37.159,1
0.013766659,2.2379801,9.194932,-0.048563786,-0.028710667,0.06780604,-4.01,4.637,-37.159,1
-0.39384618,1.5693992,9.403227,-0.10140363,-0.1001819,0.05009095,-4.01,4.637,-37.159,1
0.038307227,1.8914193,10.418967,-0.008857546,-0.28619036,0.105374254,-4.348,4.637,-37.159,1
0.3890578,2.154183,8.862736,0.17470746,-0.079107046,-0.1740966,-4.977,4.637,-36.825,1
0.4842273,2.0512323,8.683769,-0.006414085,-0.025350908,0.0012217305,-4.977,4.637,-36.825,1
-0.31483752,1.965041,9.20391,-0.21471913,0.035124753,-0.20616703,-4.977,4.309,-36.825,1
-0.46806642,1.7657237,9.627085,-0.24373524,0.32467487,0.049785517,-4.977,4.309,-36.825,1
-0.16938977,1.8806454,9.463681,-0.06780604,0.0076358155,0.08979719,-4.977,4.934,-36.825,1
-0.61171854,1.4395138,9.952098,-0.2941316,-0.8686504,0.0076358155,-4.647,5.581,-36.825,1
0.8283938,1.6059108,8.907627,0.32528573,-0.23182335,0.22052236,-4.647,5.935,-36.825,1
1.6753427,2.0500352,8.7609825,0.35246924,-0.007941248,0.16249016,-5.316,5.935,-36.825,1
1.2030864,1.70946,8.26239,0.24862215,0.02076942,0.35888332,-5.641,5.935,-36.521,1
0.46806642,2.5605986,8.922591,0.013133603,1.0815369,-0.13316862,-5.641,5.265,-36.521,1
-0.5363012,2.0907366,9.427169,0.13530666,-0.06352998,-0.109650314,-5,4.963,-36.521,1
0.7625532,1.0588357,6.203975,0.52290064,-0.43799037,0.28893927,-4.679,4.225,-36.834,1
-1.4371196,1.4335283,7.031172,0.0070249503,0.5580254,-1.1169671,-4.679,3.199,-36.834,1
-0.55485624,1.2988545,11.826757,-1.4266758,0.04886922,-0.4810564,-4.679,2.772,-36.834,1
-1.6041151,0.97982705,8.818443,0.04734206,-0.6814202,-0.50671273,-4.356,3.126,-36.834,1
-1.4149733,-0.023343466,11.409568,-0.37598756,-0.2666427,-0.46944994,-5.54,4.446,-36.834,1
0.25139117,3.152565,8.249222,-0.03481932,1.2883148,0.410196,-5.943,4.75,-36.473,1
-0.04189853,2.0739772,8.7538,0.1685988,0.70188415,0.14172074,-5.834,4.449,-36.473,1
-3.7343562,-1.0061632,8.767567,0.40378192,0.6728681,0.22357668,-4.487,4.104,-36.775,1
3.016694,3.539827,8.198345,1.7214183,0.41874814,0.25289822,-4.168,1.306,-36.775,1
0.012569559,2.8000188,8.7053175,-1.785559,0.5635232,0.62796944,0.035,0.82,-37.083,1
-2.3582888,0.9211691,9.920973,-1.7321084,-0.7535023,-0.7305948,-1.069,1.966,-37.083,1
1.9674352,1.951873,10.688913,-1.1887437,-0.0125227375,-0.71593404,-0.476,4.614,-37.399,1
-1.6771383,0.044891283,12.226589,-1.0827587,-1.1468995,-0.81122905,-1.998,5.572,-37.399,1
-1.067814,0.95109665,9.08001,1.525636,-0.007330383,0.61391956,-3.033,6.356,-37.091,1
-1.939902,1.7052702,11.595717,1.2144,0.5708536,0.51159966,-3.372,4.234,-37.091,1
0.87567925,3.9252937,6.7570357,-1.0173961,0.21197024,0.25228736,-3.372,2.163,-37.091,1
-0.093373865,3.205836,9.116522,0.09254608,0.70188415,-0.14294247,-2.424,2.497,-37.091,1
-1.6813282,1.5969325,8.467693,-0.63285637,-0.5861252,0.042455133,-0.784,3.523,-37.091,1
-0.5506664,0.9403227,8.81964,-0.18784106,-1.8735237,0.1160644,-4.136,5.075,-37.091,1
1.7196354,1.8429368,9.588778,0.0067195175,-1.7201965,-0.20189096,-9.199,5.908,-36.442,1
2.171541,2.0626047,9.750386,0.4092797,0.14660765,-0.064446285,-9.135,6.224,-35.461,1
1.3640964,1.8926164,9.661202,0.31581733,0.7629707,0.017104227,-8.813,6.224,-35.461,1
0.57041854,1.8800468,8.895657,0.18661933,0.6728681,-0.09865474,-7.594,5.552,-35.81,1
0.3609259,2.0009542,8.644864,0.112399206,-0.1826487,-0.09865474,-6.388,5.249,-36.114,1
0.38606504,1.578976,9.494805,0.116675265,-0.060170226,-0.13347405,-6.083,4.916,-36.419,1
-0.2100912,2.110489,8.977658,-0.26908615,0.70646566,0.057421334,-5.783,4.916,-36.419,1
0.0005985504,1.8920178,8.717288,0.1908954,0.070554934,0.016493361,-5.47,4.916,-36.419,1
0.22385786,1.8884265,9.457695,-0.10751228,0.048258353,-0.084910266,-5.47,5.612,-36.419,1
-0.12090719,1.8602947,9.7007065,-0.02076942,0.46944994,0.098043874,-5.47,5.946,-36.419,1
-0.28431144,1.9955671,9.69532,0.13041973,0.083383106,-0.0125227375,-4.78,5.946,-36.738,1
-0.20590134,2.0590134,9.246407,0.21135938,0.22082779,0.048563786,-4.048,5.946,-36.738,1
-0.694917,2.309806,9.236232,0.12950343,0.2003638,0.029932396,-3.715,5.329,-36.738,1
-0.59855044,2.4821887,9.015367,0.18112154,0.09560041,0.040011674,-3.021,4.998,-36.738,1
-0.92775315,2.0374656,9.629479,-0.10934488,-0.00030543262,-0.054061573,-2.308,4.653,-36.738,1
-0.4938041,2.2894554,9.679159,-0.32986724,-0.3857614,-0.018325957,-2.308,4.653,-36.738,1
-0.49799395,2.1320367,9.22067,0.14844026,-0.03848451,0.015577064,-3.016,4.965,-36.738,1
-0.8451532,2.2505496,9.041702,-0.02076942,0.07238753,0.014049901,-3.33,5.274,-36.738,1
-0.7356185,1.8722657,9.306861,-0.07147124,-0.008552114,0.013133603,-3.33,5.274,-36.738,1
-0.7284359,1.8579005,9.485229,-0.21624629,-0.20463985,-0.01863139,-3.33,5.274,-37.039,1
-0.19033903,1.7992426,9.545682,-0.2782491,-0.4279111,-0.11178834,-3.646,5.612,-37.039,1
0.007182605,1.5634137,9.56304,-0.06414085,-0.17867808,-0.01863139,-4.283,5.929,-36.732,1
-0.23523031,1.6723499,9.825804,0.1957823,0.13988814,-0.019547688,-4.933,6.622,-36.732,1
-0.24480712,1.7651252,9.068638,0.05100725,-0.13439035,-0.02076942,-5.572,6.622,-36.427,1
0.10594343,1.8794483,9.064447,0.13713925,-0.06627888,0.017104227,-5.877,6.622,-36.106,1
-0.19692309,1.6567876,9.71986,-0.07849618,-0.050396383,0.027794369,-5.877,6.622,-36.106,1
0.009576807,1.8890251,9.676167,0.084910266,-0.042455133,0.04153884,-5.5,6.277,-36.422,1
-0.08200141,1.9853917,9.273342,0.12644911,-0.038789943,0.006414085,-5.125,5.941,-36.422,1
0.12030864,2.0482395,8.951322,0.101098195,-0.079107046,-0.01740966,-5.125,5.625,-36.422,1
-0.0023942017,2.0691888,9.248801,-0.02076942,0.105068825,0.0070249503,-5.442,5.625,-36.422,1
0.047285482,1.9099745,9.922769,-0.06291912,0.10720685,-0.028099801,-5.442,5.625,-36.422,1
0.015562311,1.9668367,9.340978,0.027488936,-0.07727446,-0.03573562,-5.442,5.314,-36.422,1
-0.12569559,2.1410148,8.862138,0.10354166,0.111177474,0.0030543262,-5.442,5.314,-36.422,1
-0.13467385,2.083554,9.24521,-0.07880162,-0.05375614,-0.004886922,-5.442,5.314,-36.422,1
-0.04189853,2.1452048,9.639654,-0.016493361,0.027794369,0.009162978,-5.442,5.314,-36.422,1
-0.21188685,2.1637597,8.833407,0.086132,-0.009773844,-0.022296581,-5.093,5.314,-36.422,1
-0.12090719,1.9925743,8.770559,0.1563815,-0.08277224,0.029321533,-5.093,5.314,-36.422,1
0.093373865,2.472612,8.583812,0.37812558,-0.21166481,0.031154128,-5.093,5.314,-36.422,1
0.11552023,3.019687,10.168773,0.00580322,-0.14385876,-0.016187929,-5.093,4.531,-36.422,1
0.29029694,2.510919,10.6877165,0.5335908,0.22540927,0.2302962,-5.093,3.828,-36.422,1
-0.1340753,2.018312,8.826224,0.6133087,0.09621128,0.25411993,-5.093,3.175,-36.422,1
0.91458505,2.4061728,7.269395,0.30176744,0.04184427,0.36713,-5.093,2.099,-36.422,1
0.02932897,3.1591492,7.339425,-0.3155119,0.35094208,-0.110872045,-4.421,1.466,-36.422,1
-0.80924016,2.8072014,10.301651,-0.19058995,0.08827003,-0.058643065,-3.347,1.466,-36.422,1
-0.5105635,3.205836,9.931747,-0.06414085,-0.1386664,-0.069027774,-2.957,2.125,-36.738,1
-0.25139117,3.311181,9.159617,0.23273966,-0.1282817,0.05955936,-2.957,2.777,-36.738,1
-0.1933318,3.0945058,9.529521,0.23243423,-0.11453723,-0.0036651916,-3.327,2.777,-36.738,1
-0.3657143,3.0538042,8.568848,0.22785273,0.0842994,-0.004276057,-3.642,2.099,-36.738,1
-0.22325931,3.4141316,7.766192,-0.024740042,-0.033292156,-0.0076358155,-3.338,1.445,-36.738,1
0.01436521,3.7349546,8.013393,0.01038471,-0.17654006,-0.03848451,-3.338,1.144,-36.738,1
-0.08140286,3.5751417,9.066842,-0.17501289,-0.105068825,-0.06383542,-3.338,1.144,-36.434,1
-0.14903906,3.0783448,9.289502,-0.071776666,-0.05131268,-0.073303826,-3.338,1.144,-36.434,1
-0.16579847,2.9203274,8.911818,0.08277224,-0.03848451,-0.10170906,-3.643,1.144,-36.434,1
-0.23523031,2.9753942,8.684967,-0.0021380284,0.042760566,-0.043982297,-3.643,1.144,-36.434,1
-0.020949265,3.0974984,8.907029,-0.14905111,-0.10903945,-0.008552114,-3.948,1.144,-36.434,1
0.19153613,2.9502552,9.191938,-0.035124753,-0.04886922,0.007941248,-3.948,1.144,-36.434,1
-0.08678981,2.7928362,9.495404,-0.057726767,0.09040806,0.007330383,-4.281,1.451,-36.434,1
0.0023942017,2.9658175,8.853758,-0.018325957,0.050701816,0.0711658,-4.898,1.791,-36.434,1
-0.39624038,2.8874073,8.637083,-0.14019357,0.106901415,0.057421334,-4.898,2.099,-36.434,1
-0.15263036,2.9167361,9.290101,-0.016798794,0.09621128,0.016493361,-4.173,2.099,-36.434,1
-0.28550854,3.052607,9.339781,0.0888809,0.34422258,0.024129177,-3.843,2.421,-36.434,1
-0.50278234,3.043629,8.371924,0.14782938,0.376293,0,-3.506,2.421,-36.737,1
-0.9139865,3.2800562,9.0016,-0.16401732,-0.025350908,-0.03756821,-3.195,2.421,-36.737,1
-0.23223756,3.0220811,8.89446,-0.3567453,-0.36865717,-0.111177474,-3.195,2.726,-36.737,1
0.03172317,2.541445,9.112331,-0.12767084,-0.27977628,-0.13530666,-3.5,3.067,-36.737,1
-0.25139117,2.3756466,9.781511,-0.016493361,0.09162979,0.046731193,-3.813,3.375,-36.737,1
-0.34356794,2.0165164,9.711481,-0.06352998,0.0143553335,0.101098195,-3.813,3.375,-36.428,1
-0.5506664,2.9412768,9.1829605,0.26542094,0.06047566,0.13316862,-3.813,3.375,-36.428,1
-0.504578,3.0885203,8.3868885,0.23640485,0.2574797,0.082161374,-3.446,3.05,-36.428,1
-0.90500826,2.9514523,9.428965,-0.269697,-0.043676864,-0.01863139,-3.117,2.696,-36.428,1
-0.7577648,2.7952304,8.89446,-0.5180137,-0.2648101,-0.11362094,-2.778,2.696,-36.428,1
-0.07182605,2.1906946,9.411607,-0.44532076,-0.33505958,-0.08399397,-2.778,3.021,-36.428,1
-0.30645782,1.9249382,9.779716,-0.24862215,-0.24281894,-0.13652839,-3.089,3.739,-36.428,1
-0.24839842,2.232593,9.293094,0.006414085,-0.0720821,-0.102319926,-3.459,4.414,-36.428,1
-0.24899697,2.1188686,9.251794,0.006414085,0.009162978,-0.023518313,-3.773,4.745,-36.428,1
-0.16519992,2.408567,9.003395,0.024740042,0.007941248,0.010995574,-4.075,4.745,-36.428,1
-0.005985504,2.5169046,9.058462,0.110872045,-0.15577064,-0.032375857,-4.075,4.745,-36.428,1
-0.13706805,2.2331917,9.087193,0.057726767,-0.09315695,0.01038471,-4.376,4.745,-36.428,1
-0.130484,2.1625626,9.044696,0.05131268,0.011911872,0.004581489,-4.682,4.745,-36.126,1
0.18435353,2.3588872,9.19134,0.10598512,-0.04550946,0.034208454,-4.682,4.745,-36.126,1
0.04129998,2.5127146,8.834005,0.16584991,-0.030543262,-0.017715093,-5.01,4.745,-36.126,1
-0.02633622,2.3187842,9.085397,0.05222898,-0.029626964,0.029321533,-5.01,4.745,-36.126,1
-0.12210429,2.3056161,9.233837,0.0076358155,-0.02565634,-0.005192355,-5.349,4.745,-36.126,1
-0.05925649,2.3612814,9.207501,0.09590584,-0.029932396,0.015271631,-5.349,4.745,-36.126,1
-0.0047884034,2.409764,9.416994,0.0571159,-0.02565634,0.02107485,-5.036,4.431,-36.126,1
0.2765303,2.463035,8.772355,0.12095132,-0.12644911,0.0143553335,-4.724,4.113,-36.126,1
-0.108337626,2.6527755,9.102157,-0.065973446,0.108123146,-0.01282817,-5.027,3.813,-36.126,1
0.15322891,2.5276785,9.493608,-0.04886922,0.12950343,0.14721853,-5.349,3.813,-36.126,1
-0.18435353,2.5755625,9.193136,0.18875736,0.10781772,0.09040806,-5.349,3.813,-36.126,1
-0.16101007,2.8646624,8.932767,0.2574797,0.07941248,0.06811147,-5.029,3.813,-36.126,1
-0.22026655,3.0370448,9.051878,0.19853121,0.073303826,0.04428773,-4.269,3.164,-36.488,1
-0.20829555,3.1148565,8.93576,0.1863139,0.29229903,-0.011911872,-3.883,2.508,-36.488,1
-0.50517654,2.9646204,8.652046,0.050701816,-0.01863139,-0.03848451,-3.572,2.201,-36.801,1
-0.31124622,3.0125043,8.938752,-0.099571034,-0.23732115,-0.06414085,-3.572,2.201,-36.801,1
-0.16460137,3.0723593,8.781333,-0.056505036,-0.098043874,-0.051923547,-4.22,2.201,-36.482,1
0.16101007,2.9029696,8.97287,-0.011301007,-0.1731803,0.040927973,-4.557,2.201,-36.166,1
-0.415394,2.8323407,8.849568,0.3023783,-0.11575896,-0.034208454,-4.873,2.201,-36.166,1
0.18375498,3.269881,8.777742,0.15363261,-0.14172074,-0.033292156,-4.873,2.201,-35.858,1
0.23882163,3.3572693,8.662222,0.16371189,-0.051923547,0.054367006,-5.229,1.84,-35.858,1
0.108936176,3.164536,8.986037,-0.02565634,0.0580322,0.016187929,-5.229,1.516,-35.858,1
0.047884032,3.3704374,8.877101,-0.090713486,0.11453723,0.015577064,-5.229,1.516,-35.858,1
-0.006584055,2.9921536,9.229648,-0.26389378,-0.04520403,-0.046731193,-5.229,1.516,-35.858,1
0.14065935,2.8886044,8.748413,-0.15241088,-0.0021380284,-0.03390302,-5.229,2.197,-35.858,1
0.05865794,2.5210943,9.087193,-0.06536258,0.10873401,-0.0018325958,-5.229,2.549,-36.16,1
-0.24301147,2.7808652,9.187749,-0.08246681,0.04062254,-0.04184427,-4.882,2.885,-36.16,1
-0.10235212,2.7617116,9.144054,-0.049785517,-0.13103059,0.0061086523,-4.882,2.885,-36.16,1
-0.061650693,2.508525,9.369708,0.12156218,0.10048734,0.069027774,-4.882,3.195,-36.16,1
-0.25139117,2.6198552,9.072228,0.041233405,-0.13469578,-0.02076942,-4.533,3.195,-36.16,1
0.08619126,2.743755,9.247604,-0.04062254,0.0015271631,0.0033597588,-4.533,3.195,-36.16,1
-0.05566519,2.6354175,9.282919,0.040927973,-0.056505036,-0.03023783,-4.533,3.195,-36.16,1
0.017357962,2.9107506,8.861539,0.312763,-0.07696902,0.039095376,-4.533,2.868,-36.16,1
-0.23523031,2.984971,8.831013,-0.3912592,-0.089186326,0.015271631,-4.533,2.566,-36.16,1
0.0796072,2.915539,9.405023,-0.3979787,0.24404067,0.07452556,-4.533,2.566,-36.16,1
-0.037708677,2.565387,9.488221,0.12705997,-0.08827003,0.023518313,-4.533,2.566,-36.16,1
-0.3274071,3.0669725,8.707711,0.13652839,0.18875736,0.063224554,-4.212,2.873,-36.16,1
-0.39624038,3.007716,8.865729,0.44898596,0.31245756,0.116675265,-4.212,2.873,-36.474,1
-0.65301853,3.2513258,9.385869,0.15790866,0.24251351,0.045814894,-3.904,2.563,-36.474,1
-0.45250413,3.3506854,8.101978,0.29443705,0.15210545,0.040927973,-3.273,1.898,-36.474,1
-1.22224,2.8179753,8.811859,-0.37843102,0.14905111,-0.1151481,-3.273,1.898,-36.474,1
-0.16101007,2.8072014,8.314464,-0.0870483,-0.73884153,-0.32070425,-2.972,1.898,-36.474,1
-0.42556936,2.4905684,9.054273,-0.2929099,-0.096516706,-0.0870483,-3.306,2.235,-36.474,1
-0.08080431,2.5821466,9.595362,-0.03970624,-0.051618114,-0.027183503,-4.06,3.198,-36.474,1
-0.39983168,2.6114755,9.059061,0.19242255,0.07819075,-0.0076358155,-4.364,3.55,-36.474,1
-0.19931729,2.8341362,8.077438,0.54092115,-0.18387043,-0.03268129,-4.364,3.55,-36.474,1
-0.31902736,2.8281507,8.929773,-0.0729984,-0.04886922,0.038179077,-4.69,3.245,-36.474,1
-0.3842694,2.5689783,10.137649,-0.13591751,0.05009095,-0.032375857,-4.69,2.906,-36.474,1
0.095169514,2.6324248,8.843582,-0.090713486,-0.22174409,-0.2443461,-4.69,2.906,-36.474,1
0.13467385,2.6252422,8.978855,-0.100792766,-0.02687807,-0.015271631,-5.021,2.906,-36.474,1
-0.016759412,2.4127567,9.322423,-0.13347405,0.0888809,0.07696902,-5.021,2.906,-36.134,1
-0.08439561,2.5013423,9.140464,-0.083383106,0.01985312,0.050396383,-5.021,3.213,-36.134,1
-0.062249243,2.7748797,9.051878,0.083383106,0.12034045,0.09132435,-5.021,3.213,-36.134,1
-0.20051439,2.915539,8.7609825,-0.13591751,0.3313944,0.18784106,-4.687,3.213,-36.134,1
-0.44352585,2.5121162,9.382876,0.3268129,-0.118202426,0.04337143,-4.031,3.518,-36.454,1
-0.39205053,2.497751,9.45171,-0.18173242,0.21013765,0.073303826,-4.031,3.518,-36.454,1
-0.2657564,2.8269536,9.074623,-0.12492194,-0.10995574,0.116980694,-4.031,3.201,-36.454,1
-0.2100912,2.5605986,9.187749,-0.015577064,0.028099801,0.032986723,-4.031,3.201,-36.454,1
-0.31184477,2.4600422,9.163807,0.0027488936,-0.084910266,-0.0125227375,-3.715,3.201,-36.454,1
-0.11791443,2.7742813,9.024943,0.35155296,-0.17012598,-0.043676864,-4.06,3.201,-36.454,1
-0.4333505,2.4390929,9.39365,-0.35338554,0.23548855,-0.024740042,-4.393,3.201,-36.454,1
-0.11851298,2.6449943,9.723452,-0.064446285,0.12217305,0.08093964,-4.721,3.201,-36.454,1
-0.048482586,2.3301568,9.116522,0.028710667,-0.014660766,-0.01740966,-4.721,3.201,-36.454,1
-0.15741876,2.7982233,9.192537,0.039095376,0.029626964,0.04734206,-4.721,3.201,-36.454,1
-0.4249708,2.9233203,8.8777,0.1001819,0.28160888,0.12675454,-4.418,2.899,-36.454,1
-0.75596917,2.789245,9.363723,0.10445796,0.002443461,0.043676864,-3.726,2.597,-36.454,1
-0.5069722,3.3033998,8.270171,0.35155296,0.0888809,0.07086037,-3.421,2.597,-36.454,1
-0.41359833,3.2034419,9.26197,0.07574729,0.21197024,0.053450707,-3.421,2.288,-36.454,1
-0.62728083,3.259107,9.013571,-0.011301007,0.0106901415,0.041233405,-3.421,1.953,-36.454,1
-0.7092823,3.0974984,9.254189,0.035430185,-0.01863139,0.04734206,-3.421,1.953,-36.454,1
-0.30526072,3.3273418,8.683171,0.38759398,-0.045814894,0.03176499,-3.111,1.953,-36.454,1
-1.1043255,3.6002808,7.563882,0.37843102,0.2565634,-0.062308256,-3.111,1.626,-36.454,1
-1.0947487,2.835932,8.292317,-0.2171626,0.069027774,-0.07452556,-3.111,0.901,-36.454,1
-0.32441434,3.2393548,8.937555,-0.47647488,-0.39706242,-0.07941248,-3.111,0.901,-36.454,1
-0.39444473,2.9993362,8.887277,-0.13591751,-0.11575896,-0.07696902,-3.111,1.272,-36.454,1
-0.40880993,2.9496565,9.100959,-0.17562376,-0.1160644,-0.074830994,-3.48,1.605,-36.454,1
-0.0035913025,2.9317,8.942344,0.059253927,-0.1572978,-0.01985312,-3.782,2.273,-36.454,1
-0.19692309,2.9628246,8.889072,-0.023823744,-0.0143553335,0.04184427,-4.083,2.273,-36.119,1
-0.13826515,2.7742813,9.34038,-0.17012598,-0.048563786,0.018936822,-4.083,2.273,-36.119,1
-0.11731588,2.879626,9.111135,0.10415252,-0.047036625,-0.014049901,-4.083,2.587,-36.119,1
-0.31483752,3.1453824,8.576629,0.109650314,0.010995574,0.043982297,-4.402,2.587,-36.119,1
-0.11671733,3.0262709,9.12131,0.039095376,0.06505715,0.11484267,-4.733,2.587,-36.119,1
-0.4345476,3.2291796,8.896255,0.004886922,0.05131268,-0.060170226,-4.733,2.587,-36.119,1
-0.22325931,2.9041667,9.217078,-0.2434298,-0.13775012,-0.12034045,-4.733,2.587,-36.119,1
-0.05207389,2.7994204,9.500791,0.019547688,-0.10170906,-0.064751714,-4.374,2.587,-36.119,1
-0.13587095,2.56419,9.563639,-0.06719518,-0.10751228,-0.03023783,-4.374,2.587,-36.119,1
0.16759412,3.1789012,9.1590185,0.52106804,-0.2134974,0.022602014,-4.374,2.27,-36.119,1
0.39504328,3.6361938,8.872911,0.6096435,-0.16829337,0.10293079,-4.76,1.573,-36.119,1
0.0053869537,3.8229415,8.503606,0.2049453,0.25595254,0.18325958,-5.107,0.845,-35.809,1
-0.59735334,3.8762126,9.176376,0.026267206,0.4841107,-0.014660766,-5.107,0.178,-35.809,1
-0.40462008,4.115034,9.124303,-0.022602014,0.054061573,0.022296581,-4.734,0.178,-35.809,1
-0.60333884,3.54282,9.173983,-0.6197228,-0.1151481,-0.061086524,-3.66,0.178,-36.116,1
-0.12150574,3.204639,8.921394,-0.00061086525,-0.13897185,0.06383542,-3.359,0.178,-36.116,1
-0.02633622,3.311181,9.15842,0.025961773,-0.25320363,0.11178834,-3.733,0.848,-36.116,1
-0.46627077,3.435081,8.726267,0.046731193,0.0018325958,0.016798794,-4.058,1.184,-36.116,1
-0.3184288,3.3452983,9.254189,-0.1386664,-0.008857546,0.043982297,-4.362,1.184,-36.116,1
-0.33518824,3.3093853,8.853758,0.19547687,0.032070424,0.017104227,-3.999,1.489,-36.116,1
-0.36272156,3.1346085,9.305065,-0.09621128,0.046731193,0.018020526,-3.651,1.489,-36.116,1
-0.25917232,3.515885,8.756194,0.13897185,-0.17165314,-0.06658431,-3.651,1.489,-36.116,1
-0.25977087,3.5206735,8.990228,-0.055588737,-0.1432479,-0.0870483,-3.964,1.184,-36.116,1
-0.2220622,3.5021186,8.851962,0.028099801,-0.008857546,0.022907447,-4.286,0.865,-36.116,1
-0.2693477,3.5715504,8.759187,0.20616703,-0.110872045,0.06841691,-4.286,0.865,-36.116,1
-0.54887074,3.8121676,8.71669,0.25381452,0.24770586,0.02443461,-4.286,0.55,-36.116,1
-0.8002619,3.3794158,8.638878,-0.028405234,0.05009095,-0.0106901415,-4.286,0.55,-36.116,1
-0.091578215,3.9935284,8.093,0.85062987,0.064446285,0.13041973,-4.286,-0.085,-36.116,1
-0.3890578,4.226963,8.46051,-0.010079277,0.312763,0.0290161,-4.286,-0.428,-36.116,1
-0.87208796,4.1198225,8.639477,-0.16401732,0.54336464,0.022602014,-3.657,-1.176,-36.116,1
-0.86370826,3.5009215,8.226477,-0.4098906,-0.06963864,-0.106595986,-2.98,-1.176,-36.116,1
-0.19991584,3.4500446,8.859743,-0.4111123,-0.36865717,-0.096516706,-2.673,-0.814,-36.116,1
-0.5021838,3.2920272,9.34397,-0.18784106,-0.095294975,-0.004276057,-2.673,-0.074,-36.116,1
-0.28491,3.4889505,9.207501,0.105068825,-0.0036651916,0.018325957,-2.673,0.26,-36.116,1
-0.5231331,3.4985273,8.9279785,0.020463986,-0.009162978,-0.025961773,-2.673,0.582,-36.116,1
-0.8062474,3.3159695,8.707711,-0.15149458,-0.26816985,-0.13988814,-3.016,0.904,-36.116,1
-0.29927522,2.504335,9.03452,-0.43951756,-0.5207626,-0.29657507,-3.726,1.234,-36.116,1
0.2088941,2.630629,9.395446,-0.22815818,-0.2501493,-0.06261369,-4.417,1.893,-36.116,1
-0.08499416,2.765303,9.682152,-0.0067195175,0.19333886,-0.008857546,-5.126,2.632,-35.812,1
-0.28072014,2.822764,9.188348,-0.13225232,-0.05222898,-0.0143553335,-5.441,2.96,-35.812,1
-0.008978256,2.8496985,8.944139,0.05009095,0.02443461,0.030848695,-5.784,2.96,-35.812,1
0.065242,2.6396074,9.160814,-0.04428773,-0.029321533,0.01160644,-5.784,2.96,-35.812,1
-0.092176765,2.7138276,9.100361,-0.047647487,-0.058337633,0.022602014,-5.784,2.96,-35.812,1
-0.031124622,2.7970262,9.161413,-0.02107485,-0.043066,0.021380283,-5.476,2.96,-35.812,1
0.050278235,2.6982653,9.169792,-0.0106901415,-0.06169739,0.0076358155,-5.476,2.96,-35.812,1
-0.08619126,2.7299886,9.203311,0.03970624,0.009468411,0.004276057,-5.476,2.96,-35.812,1
-0.07182605,2.8030117,8.795698,0.05467244,0.03481932,-0.014049901,-5.476,2.96,-35.812,1
0.079008654,2.7485435,9.062054,-0.0125227375,-0.004276057,0.019547688,-5.848,2.96,-35.812,1
0.005985504,2.8742392,9.137471,-0.007330383,-0.00061086525,0.027183503,-5.519,2.96,-35.812,1
0.1933318,2.8000188,10.003573,0.017715093,0.031154128,0.0015271631,-5.519,2.96,-35.812,1
-0.012569559,3.0490158,9.298481,0.115453534,-0.020158553,-0.013133603,-5.216,2.96,-35.812,1
0.11731588,2.9334955,8.892065,0.15363261,-0.10781772,0.06566802,-5.216,2.653,-35.812,1
0.08140286,2.835932,8.901642,0.101098195,-0.09743301,0.04184427,-5.216,2.339,-35.812,1
-0.065242,3.2860417,8.859743,0.11148291,0.14874569,-0.0021380284,-5.216,2.339,-35.812,1
0.037708677,3.2872388,9.1751795,0.17715092,0.1518,0.06688975,-5.216,2.033,-35.812,1
0.25019407,3.232771,9.144653,0.06566802,-0.042760566,0.069027774,-5.216,2.033,-35.812,1
-0.12868834,3.530849,8.137293,0.3567453,-0.048563786,0.09590584,-5.216,1.713,-35.812,1
-0.050278235,3.4991257,8.770559,0.030543262,0.14721853,0.076052725,-4.901,1.086,-35.812,1
-0.47405192,3.4231098,9.190742,-0.022296581,0.36926803,0.036651913,-4.58,0.775,-35.812,1
-0.38367084,3.5511997,9.118916,-0.12186762,0.011911872,-0.0076358155,-4.58,0.775,-35.812,1
-0.29149407,3.518878,9.188348,-0.103847094,-0.06658431,-0.043066,-4.28,0.474,-35.812,1
-0.40521863,3.5763388,8.593987,0.02443461,0.004581489,-0.05131268,-4.28,0.474,-35.812,1
-0.29747957,3.4111388,8.689157,-0.15027285,-0.12156218,-0.030848695,-4.28,0.474,-35.812,1
-0.3357868,3.3267434,8.996213,-0.067500606,-0.07880162,-0.025961773,-3.97,0.474,-35.812,1
0.05865794,3.1890767,9.171588,0.018020526,-0.046120327,0.023823744,-3.97,0.775,-35.812,1
-0.14544775,3.776853,8.282741,0.1872302,0.2742785,0.06566802,-3.97,0.775,-35.812,1
-0.35913026,3.657143,8.547898,0.073303826,0.28191432,0.15974127,-3.97,0.775,-35.812,1
-1.7100586,3.6373909,8.250419,0.24770586,0.6407976,-0.05589417,-3.324,0.775,-35.812,1
-1.417966,3.4967315,8.066664,-0.06536258,0.06627888,-0.056505036,-2.679,0.462,-35.812,1
-1.0851719,3.0262709,9.285313,-0.408058,-0.28710666,-0.03604105,-2.04,0.462,-36.119,1
-0.83617496,3.8642416,8.545505,0.4810564,-0.24281894,-0.101098195,-2.04,0.462,-36.119,1
-0.84216046,3.6882677,8.532935,0.041233405,-0.010079277,-0.017104227,-2.406,0.462,-36.119,1
-0.48003745,3.8265328,9.261371,-0.20647246,-0.12095132,0.06261369,-2.784,0.079,-36.119,1
-0.077811554,3.9671922,8.670602,0.25167647,0.029626964,0.054367006,-3.091,-0.248,-36.119,1
-1.3180081,4.099472,8.157643,0.15454891,0.3182608,-0.15332718,-3.091,-0.248,-35.815,1
-0.63206923,4.2437224,7.041347,0.3643811,0.08277224,0.004581489,-3.091,-0.616,-35.815,1
-1.1611878,3.3566709,8.509591,-0.18600847,0.04337143,-0.03145956,-2.786,-0.971,-35.815,1
-0.6997054,4.07134,8.31207,-0.15088372,-0.26389378,-0.020158553,-2.786,-0.971,-35.815,1
-0.39025488,3.8025908,8.498219,-0.33200526,-0.23854288,-0.14172074,-3.088,-0.596,-35.815,1
-0.46028528,3.4650085,9.320627,-0.28160888,-0.19761491,-0.102319926,-4.176,0.067,-35.499,1
-0.3669114,3.168726,9.133281,-0.33536503,-0.16340645,0.021685716,-4.176,0.741,-35.499,1
-0.23403321,3.2064347,8.913014,-0.09101892,0.0021380284,0.015577064,-4.512,1.077,-35.809,1
-0.1340753,3.1986535,8.735245,0.033292156,-0.049785517,0.04795292,-4.512,1.402,-35.809,1
-0.20709845,3.25791,8.816648,0.040927973,0.09010262,0.022907447,-4.209,1.402,-35.809,1
-0.39564183,3.4039562,9.097368,-0.04917465,0.20372356,0.063224554,-3.889,1.402,-35.809,1
-0.57760113,3.4284968,8.475474,0.07238753,0.17867808,0.06078109,-3.576,1.402,-35.809,1
-0.4405331,3.2118216,8.858546,0.021991149,0,-0.009773844,-3.576,1.402,-35.809,1
-0.4842273,3.3560722,8.491036,-0.14569137,-0.17379116,-0.084910266,-3.576,1.402,-35.809,1
-0.26036942,3.354875,9.387066,-0.18112154,-0.05681047,-0.013744468,-3.901,1.402,-35.809,1
-0.16759412,3.240552,8.461109,0.034208454,-0.052534413,0.053145275,-4.537,1.402,-35.809,1
-0.6075287,3.1561563,9.449914,-0.04184427,0.032070424,-0.015577064,-4.537,1.402,-35.809,1
-0.5602432,3.4075475,9.2308445,0.087964594,0.038789943,0.061391957,-4.199,1.402,-35.809,1
-0.58119243,3.5356374,7.553706,0.3203988,0.2751948,0.057421334,-3.887,1.402,-35.809,1
-0.5231331,3.0556,8.277354,-0.06047566,-0.077579886,-0.03268129,-3.887,1.402,-35.809,1
-0.45250413,3.156755,9.729437,-0.40042216,-0.13561209,-0.08032878,-3.251,1.402,-35.809,1
-0.5662287,3.5021186,8.98903,0.19608775,-0.032375857,-0.082161374,-3.251,1.402,-35.809,1
-0.48841715,3.145981,9.074024,0.17654006,-0.26847526,-0.021380283,-3.573,1.402,-35.809,1
-0.23642741,3.4955344,8.957307,0.18600847,-0.16737708,0.0027488936,-3.996,1.065,-35.809,1
-0.3513491,3.7187939,8.319252,0.00061086525,-0.06963864,0.044593163,-4.693,0.738,-35.809,1
-0.57400984,3.3608606,9.032125,-0.32498032,0.1414153,-0.012217305,-4.377,0.415,-35.809,1
-0.3537433,3.2728736,9.120711,-0.24648413,0.03268129,0.043982297,-4.377,0.415,-35.809,1
-0.22146365,3.0747535,8.6299,0.10048734,-0.124311075,-0.046731193,-3.723,0.767,-35.809,1
-0.4309563,3.1531637,9.14226,-0.1142318,0.124311075,-0.0061086523,-3.723,1.1,-35.809,1
-0.272939,3.328539,8.771756,-0.094989546,-0.008246681,0.06505715,-3.723,1.417,-35.809,1
-0.45429978,2.9472623,9.333796,-0.095294975,0.026267206,-0.02321288,-4.049,1.417,-35.809,1
-0.33399114,3.208829,8.978256,0.06261369,-0.03176499,0.0070249503,-4.049,1.739,-35.809,1
-0.3489549,3.1507695,8.871715,0.1160644,-0.028405234,0.022602014,-4.049,1.739,-35.809,1
-0.21906945,3.4596214,8.537125,0.22174409,-0.087964594,0.0070249503,-4.049,1.739,-35.809,1
-0.5823896,3.1094694,8.694544,-0.034513887,0.10629055,0.04550946,-4.049,1.739,-35.809,1
-0.6218939,3.2022448,9.037513,-0.03604105,0.08277224,0.035124753,-4.362,1.739,-35.809,1
-0.3429694,3.1507695,8.84059,-0.065973446,0.020463986,0.043982297,-4.679,1.739,-35.809,1
-0.35913026,3.079542,9.516952,-0.19303341,-0.011301007,0.025350908,-4.679,1.739,-35.809,1
-0.7392098,3.115455,8.673594,-0.021991149,0.36041048,0.10720685,-4.344,1.739,-35.809,1
-0.7236475,3.4003649,9.728839,0.08460484,0.12614368,0.030848695,-3.659,1.739,-35.809,1
-0.6464345,3.3093853,8.887876,0.09590584,0.04550946,0.039095376,-2.946,1.739,-35.809,1
-0.8702923,3.4272997,7.8912888,0.2049453,0.09101892,0.04734206,-2.946,1.739,-35.809,1
-0.9983821,3.0460231,8.225879,0.04337143,0.004276057,0.01038471,-2.946,1.739,-35.809,1
-0.8595184,3.506907,8.757391,0.035124753,-0.0290161,0.0009162979,-2.624,1.402,-35.809,1
-0.56443304,3.4518404,8.684967,0.18173242,0.014049901,-0.02565634,-2.624,1.084,-35.809,1
-1.0642227,3.6649241,7.241263,0.23365596,0.2846632,-0.01282817,-2.307,0.747,-35.809,1
-0.8487445,3.5422213,9.000402,-0.17898351,-0.093767814,0.009162978,-2.307,0.747,-35.809,1
-0.9451111,3.775656,9.141062,-0.30024028,0.037873644,-0.004886922,-1.968,0.747,-35.809,1
-1.0630256,3.3865983,9.105747,-0.12339478,-0.18845193,-0.012217305,-1.968,1.049,-35.809,1
-0.6344634,3.1627405,9.252393,-0.24678956,-0.37782016,-0.11942416,-2.307,1.385,-36.111,1
-0.15622166,3.0424318,8.95611,-0.12308934,-0.37568212,-0.07941248,-2.963,1.69,-36.111,1
-0.44651863,3.1016884,9.059659,0.17379116,0.42455134,-0.014660766,-3.781,2.029,-36.111,1
-0.6823475,3.472191,8.689755,0.14110987,-0.13713925,-0.1255328,-4.115,2.352,-36.111,1
-0.092775315,3.2112231,8.209718,0.3213151,0.13439035,0.14813483,-4.116,2.352,-36.111,1
-1.4036007,3.5290532,8.926781,0.029321533,0.5830709,0.18295415,-3.349,1.705,-36.111,1
-1.2671312,3.4344823,8.528147,-0.029626964,0.45998153,0.03634648,-2.265,1.353,-36.111,1
-1.0893618,3.3243492,8.754398,-0.049785517,0.046731193,-0.054367006,-1.901,1.353,-36.111,1
-1.1097125,3.25791,9.062652,-0.0888809,-0.25442538,-0.039095376,-1.585,1.353,-36.111,1
-0.65182143,3.1322143,8.863335,-0.13775012,-0.31215215,-0.106595986,-1.585,1.353,-36.111,1
-0.52492875,3.080739,8.929773,-0.11636983,-0.2773328,-0.074830994,-1.905,1.658,-36.111,1
-0.5554548,3.0340521,9.089587,-0.07666359,-0.14935656,-0.013439035,-2.871,1.658,-36.111,1
-0.36750996,2.979584,8.9363575,-0.03756821,-0.15485434,-0.022602014,-3.186,1.96,-36.111,1
-0.3561375,3.0418332,8.763975,0.07574729,-0.10140363,-0.028710667,-3.823,2.287,-36.111,1
-0.39205053,2.9215245,9.196129,-0.0870483,0.0027488936,0.0012217305,-4.125,2.287,-36.111,1
-0.2088941,3.0951042,8.693346,0.0030543262,-0.06780604,0.007941248,-4.125,2.287,-35.804,1
-0.24301147,2.9466639,9.389461,-0.10751228,0.033292156,0.0061086523,-4.455,2.287,-35.804,1
-0.13826515,2.9586349,8.338406,0.2565634,-0.023823744,0.03634648,-4.455,2.287,-35.804,1
-0.35553896,2.9095535,8.942942,-0.043676864,0.05497787,-0.0067195175,-4.455,2.287,-35.804,1
-0.28491,2.9562407,9.3026705,-0.22174409,0.0580322,-0.0030543262,-4.455,2.287,-35.804,1
-0.40581718,2.9005754,9.020155,0.015577064,0.0125227375,0.00030543262,-4.139,2.287,-35.804,1
-0.3357868,2.9071593,9.136872,0.014660766,-0.002443461,0.015271631,-3.816,2.287,-36.105,1
-0.29568392,2.8520927,8.972271,0.004276057,-0.045814894,0.004886922,-3.816,2.287,-36.105,1
-0.22505496,2.9017725,8.883087,0.009773844,-0.082161374,-0.02443461,-3.816,2.589,-36.105,1
-0.30885202,2.8874073,9.054273,-0.00030543262,-0.07941248,-0.021991149,-3.816,2.589,-36.105,1
-0.16340427,2.8694508,9.111135,-0.023518313,-0.036957346,-0.007330383,-3.816,2.589,-35.795,1
-0.2208651,2.9538465,8.796896,0.039095376,0.016493361,0.006414085,-3.816,2.589,-35.795,1
-0.1604115,2.9370868,8.983644,-0.04428773,0.02443461,0.0030543262,-4.116,2.589,-35.795,1
-0.17417817,2.7982233,9.261371,0.01282817,-0.005497787,0.016187929,-4.116,2.589,-35.795,1
-0.13946225,3.0280666,8.855554,0.046731193,-0.028099801,0.00580322,-4.444,2.589,-35.795,1
-0.1400608,2.8856115,9.101558,0.16035213,0.17104226,0.08124508,-4.444,2.589,-35.795,1
-0.4914099,3.1866825,9.353547,0.18478674,0.4633413,0.02107485,-4.125,2.589,-35.795,1
-0.7667431,3.345897,8.800487,0.119729586,0.16035213,0.093767814,-3.404,2.238,-36.122,1
-1.0408791,3.4596214,8.637681,0.083383106,0.077579886,0.08857546,-3.099,1.901,-36.122,1
-1.0199299,3.4751837,8.282741,0.0076358155,0.14538592,0.021685716,-2.769,1.588,-36.122,1
-0.908001,3.3129766,8.876503,-0.0983493,-0.13652839,-0.010079277,-2.769,1.588,-36.122,1
-0.83976626,3.2309752,8.983644,-0.15515977,-0.2593123,-0.12675454,-2.468,1.588,-36.122,1
-0.4973954,3.1352072,8.880095,-0.03970624,-0.27122417,-0.09896017,-3.222,1.907,-36.122,1
-0.46926352,2.947861,9.452907,-0.08155051,-0.086132,0.02687807,-3.848,1.907,-36.122,1
-0.41479546,3.1106665,9.210494,-0.09468412,-0.07727446,0.013744468,-4.162,1.907,-36.122,1
-0.41958386,3.1944637,8.911818,-0.03726278,0.007330383,-0.013133603,-4.162,1.907,-36.122,1
-0.21787235,3.0974984,8.705916,0.057726767,0.027488936,-0.019242255,-3.86,1.907,-36.122,1
-0.516549,3.1561563,8.878897,-0.0852157,0.01282817,-0.052534413,-3.543,1.907,-36.122,1
-0.52073884,3.144784,8.969876,0.03145956,-0.016187929,0.008857546,-3.543,1.907,-36.122,1
-0.51595044,3.071761,8.653842,0.06841691,0.02443461,0.027488936,-3.543,1.907,-36.122,1
-0.6183026,3.232771,8.78672,0.099571034,0.053145275,0.004276057,-3.543,1.907,-36.122,1
-0.5303157,3.1322143,9.182362,-0.014660766,-0.076052725,0.010995574,-3.543,2.217,-36.122,1
-0.50158525,3.032855,9.017162,0.0015271631,0.011911872,0.053450707,-4.194,2.217,-36.122,1
-0.41599256,3.0992942,8.684368,0.086132,0.17531833,0.048563786,-4.57,2.217,-36.122,1
-0.9660604,2.8814218,9.639654,-0.10140363,0.050396383,-0.17440203,-4.226,2.217,-36.122,1
-0.48602295,3.5571852,8.532336,0.10323623,-0.15882497,-0.017104227,-3.915,2.217,-36.122,1
-0.43754035,3.0065188,9.370307,-0.014660766,-0.22693644,-0.04153884,-3.915,2.217,-36.122,1
-0.34476504,3.104681,8.628104,0.19303341,-0.036651913,-0.024740042,-3.915,1.898,-36.122,1
-0.33399114,3.2387564,8.872911,-0.040317107,0.035430185,0.039095376,-3.915,1.594,-36.122,1
-0.35673606,3.1735144,9.376292,-0.17104226,0.14110987,0.05589417,-3.915,1.594,-36.122,1
-0.46866497,3.269881,8.567052,0.06261369,-0.004276057,0.06872234,-3.915,1.594,-36.122,1
-0.5835867,3.1693244,9.009979,0.01740966,0.026572637,-0.029626964,-3.561,1.594,-36.122,1
-0.4938041,3.1597476,8.992621,0.03634648,-0.06352998,0.013439035,-3.561,1.594,-36.122,1
-0.80086046,3.2555158,8.91062,-0.04520403,-0.059253927,0.0067195175,-3.561,1.594,-36.122,1
-0.26276365,2.8694508,9.288305,-0.18967366,-0.21288654,-0.06169739,-3.561,1.594,-36.122,1
-0.040102877,3.0226796,9.204509,0.006414085,-0.20922135,0.035124753,-3.561,1.905,-36.122,1
0.05746084,2.8652608,9.146449,-0.18142697,-0.16187929,0.03940081,-3.861,1.905,-36.122,1
-0.04129998,3.0831332,8.810063,0.030543262,-0.09437868,-0.0106901415,-4.533,1.905,-36.122,1
-0.15442601,2.8167782,9.404425,-0.12889257,0.04795292,0.010079277,-5.27,2.223,-36.122,1
-0.17956513,2.9712043,8.948329,0.02687807,-0.03176499,0.042760566,-5.621,2.557,-35.815,1
-0.20470424,2.9622262,8.847174,0.055588737,-0.007941248,-0.010079277,-5.953,2.87,-35.491,1
-0.22984336,2.866458,9.215282,-0.02565634,0.018325957,0,-5.59,2.87,-35.491,1
-0.034715924,2.8748376,9.174581,-0.04917465,0.025350908,0.03940081,-4.792,2.536,-35.491,1
-0.2621651,3.0579941,9.414599,-0.007941248,0.05375614,-0.028099801,-4.489,2.536,-35.491,1
-0.15801731,2.959832,8.999206,-0.04795292,-0.04520403,-0.00580322,-4.489,2.536,-35.491,1
-0.055066638,2.7730842,9.54209,-0.02565634,-0.031154128,0.017104227,-4.82,2.536,-35.8,1
-0.18375498,2.9346926,8.938752,0.044898596,-0.052839845,-0.013744468,-4.82,2.536,-35.8,1
-0.06943185,2.7431567,9.272144,0.014660766,0.033292156,0.025350908,-5.16,2.536,-35.8,1
-0.19632454,2.918532,8.930971,0.042760566,-0.036651913,-0.01282817,-5.16,2.536,-35.8,1
-0.17956513,3.0304608,9.068638,0.077579886,0.039095376,0.00030543262,-5.16,2.536,-35.8,1
0.12270284,3.122039,8.883087,0.18081611,-0.23579398,-0.007941248,-5.16,2.536,-35.8,1
0.2885013,2.8233624,9.184157,0.049785517,0.014966198,0.009162978,-5.16,2.536,-35.8,1
-0.010773907,2.9346926,9.275736,0.019242255,0.0061086523,0.004581489,-5.551,2.536,-35.8,1
0.004189853,2.742558,9.1829605,-0.09254608,0.031154128,0.0012217305,-5.902,2.536,-35.8,1
-0.1340753,2.971803,8.817844,-0.009773844,-0.008246681,0.02565634,-5.584,2.536,-35.8,1
-0.08559271,3.0226796,9.162011,-0.015882496,-0.012217305,-0.003970624,-5.22,2.212,-35.8,1
-0.15801731,3.080739,8.908825,0.17959438,0.11484267,0.0012217305,-4.844,2.212,-35.8,1
0.05267244,3.0603883,9.091981,0.043066,-0.050396383,-0.008552114,-4.844,2.212,-35.8,1
-0.1604115,3.1094694,8.7609825,0.19853121,0.12217305,-0.007330383,-4.844,2.212,-35.499,1
0.049679685,2.995745,8.730456,0.014660766,-0.046120327,0.012217305,-4.844,2.212,-35.499,1
-0.033518825,3.0214825,8.465898,0.06719518,-0.12614368,-0.0036651916,-4.844,2.212,-35.499,1
-0.2172738,2.789245,9.357738,0,0.019242255,-0.009468411,-4.844,2.212,-35.499,1
-0.0011971008,3.2513258,8.297705,0.24037547,0.1020145,0.067500606,-4.844,2.212,-35.499,1
0.01616086,3.116652,8.952518,0.07819075,0.035124753,0.06627888,-4.844,2.212,-35.499,1
-0.8182184,3.177704,8.951322,0.08032878,0.2678644,0.09682214,-4.542,1.885,-35.499,1
-0.2693477,3.3387144,9.177573,0.14385876,0.1441642,0.06627888,-3.897,1.568,-35.848,1
-0.57281274,3.5972881,8.593389,0.14477506,0.0571159,0.0711658,-3.533,1.568,-35.848,1
-0.44352585,3.4434607,8.899846,0.16340645,-0.009468411,0.1151481,-3.533,1.22,-35.848,1
-0.38965634,3.5033157,9.186552,0.1731803,0.16646078,0.014660766,-3.533,0.914,-35.848,1
-0.516549,3.7062242,8.47727,-0.025961773,0.018936822,-0.006414085,-3.222,0.914,-35.848,1
-0.3357868,3.2154129,9.138668,-0.23426682,-0.2929099,-0.07269296,-3.222,0.914,-35.848,1
-0.41838676,3.3859997,8.908226,-0.011911872,-0.1142318,-0.06536258,-3.222,0.914,-35.848,1
-0.16579847,3.366846,8.352173,0.19028452,-0.007941248,0.007941248,-3.559,0.914,-35.848,1
-0.4890157,3.3333273,9.035717,-0.17379116,0.012217305,0.013133603,-3.881,0.914,-35.848,1
-0.5069722,3.0969,8.903438,-0.14049901,-0.0125227375,0.04184427,-4.524,1.242,-35.848,1
-0.23463176,3.317765,8.811859,-0.09162979,-0.015882496,-0.0076358155,-4.876,1.591,-35.519,1
-0.19692309,3.127426,9.268554,0.036957346,0.040317107,0.01038471,-4.566,1.591,-35.519,1
-0.51355624,3.2429461,9.167398,-0.045814894,-0.040317107,-0.015271631,-4.216,1.591,-35.519,1
-0.5722142,3.2968156,9.056666,0.09743301,-0.071776666,0.025045475,-3.881,1.591,-35.519,1
-1.0408791,3.6284127,7.7943234,0.37720928,0.17623462,0.011911872,-3.881,1.591,-35.842,1
-0.08020575,3.4039562,8.431181,0.45814893,-0.799928,-0.20189096,-3.881,1.263,-35.842,1
-0.1352724,3.7535098,8.240244,-0.045814894,-0.2761111,-0.064446285,-4.586,0.213,-35.527,1
-0.19033903,3.6984432,8.717288,-0.344528,0.09254608,0.04795292,-4.954,-0.099,-35.527,1
0.107140526,3.3512838,9.325416,-0.3903429,0.23548855,0.016493361,-5.287,-0.099,-35.168,1
-0.2112883,3.430891,8.634688,0.017715093,0.040317107,0.023823744,-5.287,0.605,-35.168,1
0.17776948,3.3500867,9.056067,-0.045814894,0.029932396,0.007941248,-4.962,0.968,-35.168,1
-0.28072014,3.5392287,8.93576,0.21838433,-0.043982297,-0.14263703,-4.962,0.968,-35.168,1
0.035314474,3.067571,9.226655,-0.44318274,-0.1554652,0.10995574,-4.962,0.968,-35.168,1
0.05865794,3.2543187,9.036316,-0.21838433,0.086437434,0.044593163,-4.962,0.968,-35.168,1
0.0724246,3.17531,9.157223,-0.018020526,-0.0033597588,0.045814894,-4.962,1.327,-35.168,1
0.30825347,3.1848867,8.944737,0.129198,0.07666359,0.023823744,-4.962,1.327,-35.168,1
-0.14305355,3.684078,9.142858,0.25870144,0.48563787,0.13041973,-4.621,1.327,-35.476,1
-0.5105635,3.7684734,8.102577,0.49571714,0.4804455,0.18417588,-3.941,1.022,-35.476,1
-0.90381116,3.9025488,7.7087307,0.23609942,0.376293,0.0106901415,-3.181,0.306,-35.476,1
-1.3461399,3.821146,8.855554,-0.25289822,0.04795292,-0.040011674,-2.479,-0.028,-35.476,1
-0.7308301,3.5535939,9.133281,-0.3576616,-0.31245756,-0.057726767,-2.153,-0.028,-35.781,1
-0.39923313,3.4201171,8.74123,0.03970624,-0.26236662,-0.08827003,-2.153,0.305,-35.781,1
-0.39085343,3.354875,8.782531,0.008857546,-0.19883664,-0.051618114,-2.153,0.305,-35.781,1
-0.3405752,3.578733,8.582016,-0.052839845,-0.07513642,0.008552114,-3.199,0.624,-35.781,1
-0.26515785,3.389591,9.0237465,-0.10598512,-0.12003502,-0.038179077,-4.304,0.946,-35.781,1
0.02932897,3.2662897,8.613141,-0.2434298,-0.31398472,-0.08307768,-5.004,1.266,-35.473,1
-0.14724341,2.920926,8.558074,-0.19181168,-0.17440203,-0.14202617,-5.004,1.58,-35.473,1
0.16101007,3.1747115,8.739435,0.08002335,-0.31978795,-0.105374254,-5.331,1.58,-35.473,1
0.4189853,3.2573113,9.027936,-0.020158553,-0.13408493,-0.08552113,-6.057,1.879,-35.473,1
0.61530983,3.3800142,9.457695,-0.109650314,0.12461651,0.076358154,-6.729,2.182,-35.148,1
-0.0023942017,3.0585926,9.171588,-0.2134974,0.16890424,0,-6.729,2.182,-35.148,1
-0.23942018,2.8491,9.021352,0.030543262,0.17470746,0.042455133,-6.072,2.182,-35.473,1
0.17058687,3.0992942,9.070433,0.24587326,-0.023823744,0.020463986,-5.335,2.508,-35.473,1
-0.2753332,2.9233203,8.491635,-0.00580322,0.023823744,0.040927973,-5.032,2.508,-35.473,1
-0.39504328,2.9257145,9.172785,0.040317107,-0.023823744,0.051923547,-5.032,2.508,-35.473,1
-0.18195933,3.0544028,9.1255,-0.07696902,-0.024740042,0.013439035,-4.713,2.508,-35.777,1
0.034715924,2.8898015,9.327211,0.01160644,-0.16218472,0.008246681,-4.713,2.508,-35.777,1
-0.18734628,2.955642,8.959702,-0.15851954,0.03940081,0.014049901,-4.713,2.508,-35.777,1
-0.04369418,2.9011738,9.048286,-0.06963864,0.038179077,0.030543262,-5.033,2.508,-35.455,1
-0.09876082,2.89459,9.188946,0.02321288,0.094989546,0.08124508,-5.033,2.508,-35.455,1
-0.39085343,2.9352913,8.850166,0.16218472,0.14049901,0.05467244,-5.354,2.827,-35.455,1
-0.12988544,2.8724434,9.388264,0.017715093,-0.028099801,0.022907447,-5.354,2.827,-35.455,1
-0.27234045,3.1914709,8.977059,0.0729984,0.027488936,0.07452556,-5.027,2.47,-35.455,1
-0.31902736,3.1944637,9.056067,0.04062254,0.0711658,0.04642576,-4.692,2.157,-35.455,1
-0.25198972,3.276465,8.770559,0.03481932,0,-0.049480084,-4.338,1.849,-35.755,1
-0.28790274,3.1160536,8.945934,-0.026572637,-0.008246681,-0.023518313,-4.338,1.849,-35.755,1
-0.25857377,3.1836896,8.907029,0.042455133,-0.016493361,-0.009468411,-4.338,1.849,-35.755,1
-0.19393034,3.2992098,8.622718,0.092240654,-0.08093964,-0.010995574,-4.338,1.849,-35.755,1
-0.31902736,3.2674868,9.053075,0.06352998,-0.035124753,-0.037873644,-4.338,1.849,-35.755,1
-0.22385786,3.2549171,8.913613,0.12705997,-0.016187929,0.03145956,-4.338,1.536,-35.755,1
-0.38367084,3.4769795,8.625112,0.116675265,0.20922135,0.06872234,-4.338,1.536,-35.755,1
-0.32142156,3.4913447,9.267356,0.113926366,0.19761491,0.12644911,-3.984,0.889,-35.755,1
-0.623091,3.888782,8.595184,0.30970868,0.31215215,0.043676864,-3.285,0.509,-35.755,1
-1.4999673,3.9438488,7.536947,0.2932153,0.6417139,-0.01038471,-2.532,-0.146,-35.755,1
-1.6819267,3.4225113,8.089409,-0.23487769,0.1853976,-0.026572637,-1.461,-0.479,-36.116,1
-0.9044097,3.5613751,9.421184,-0.40866885,-0.16890424,0.03756821,-1.145,-0.479,-36.476,1
-0.6596026,3.7457285,8.542512,0.37507126,-0.063224554,-0.009468411,-1.145,-0.135,-36.787,1
-0.8702923,3.6978445,9.435549,-0.15577064,-0.04062254,-0.028710667,-0.811,-0.135,-36.787,1
-1.3485341,3.6882677,8.769362,-0.2321288,-0.06291912,0.006414085,-0.811,-0.135,-36.787,1
-1.3652935,3.5996823,8.620922,-0.09743301,0.06291912,0.018936822,-1.47,0.198,-36.486,1
-0.86849666,3.7062242,8.47727,0.17195857,0.1151481,0.03726278,-1.8,0.198,-36.486,1
-0.94211835,3.354875,9.507375,-0.025350908,0.074830994,-0.032375857,-1.495,0.531,-36.486,1
-1.2922704,3.525462,8.752005,-0.36254853,-0.09987647,-0.11789699,-1.19,0.183,-36.486,1
-0.9463082,3.3859997,8.996812,-0.25259277,-0.2049453,-0.1151481,-0.819,0.183,-36.79,1
-1.1378443,3.2615013,8.854955,0.021380283,0.083383106,0,-0.819,0.828,-36.79,1
-1.0247183,3.1453824,9.539098,-0.14263703,-0.07238753,0.044593163,-1.121,1.17,-36.444,1
-0.74758947,3.7247794,8.653243,-0.062308256,-0.005497787,-0.013744468,-1.799,1.486,-36.444,1
-1.520318,2.690484,9.269751,-0.25320363,0.1151481,-0.04337143,-2.113,1.826,-36.111,1
-1.0229226,3.3249476,8.848371,0.032070424,-0.17531833,-0.06169739,-2.113,2.145,-36.111,1
-0.7990648,3.0382419,9.037513,-0.11484267,-0.2846632,-0.20066923,-2.113,2.145,-36.413,1
-0.694917,2.3762453,9.527127,-0.0033597588,-0.160963,-0.22052236,-2.465,2.145,-36.088,1
-0.7015011,3.016694,9.196728,0.0290161,-0.023518313,-0.010995574,-2.774,2.445,-36.088,1
-0.6769605,3.1836896,8.60117,-0.08032878,-0.12186762,-0.16737708,-3.102,2.445,-36.088,1
-0.32142156,2.5552118,9.245809,-0.25503623,-0.3707952,-0.15302174,-3.784,2.783,-36.088,1
-0.50397944,2.7006595,8.855554,0.077579886,-0.18142697,-0.040317107,-4.115,3.106,-36.088,1
-0.75836337,2.534861,9.264363,0.086437434,-0.03390302,0.063224554,-4.115,3.106,-35.78,1
-0.66618663,2.504335,9.139266,-0.15607607,0.05100725,0.06078109,-4.115,3.106,-35.78,1
-0.45669398,2.7449522,9.0794115,-0.106595986,-0.004581489,0.090713486,-4.115,3.106,-35.47,1
-0.38067806,2.7371712,9.020754,0.065973446,0.0125227375,0.1142318,-4.418,3.106,-35.47,1
-0.57520694,2.532467,10.713454,0.032375857,0.13530666,0.099265605,-4.418,3.106,-35.47,1
-0.5943606,3.0430303,9.485827,-0.038789943,0.22602014,0.10415252,-4.418,2.789,-35.47,1
-0.18076223,3.0172927,8.788516,0.0983493,-0.049785517,0.07269296,-4.418,2.789,-35.47,1
-0.26036942,3.12982,8.462306,-0.010079277,-0.11789699,-0.04428773,-4.418,2.441,-35.47,1
-0.14664486,2.8999767,9.181165,-0.15271631,0.105068825,0.051923547,-4.103,2.128,-35.47,1
-0.5398925,3.0388405,8.867524,-0.0030543262,0.079107046,0.08277224,-4.103,2.128,-35.47,1
-0.44113165,2.7742813,9.766547,-0.18325958,-0.05009095,0.036651913,-4.444,2.761,-35.47,1
-0.32621,3.1112652,8.619126,0.16920967,-0.07574729,0.057421334,-4.444,2.761,-35.47,1
-0.43634325,2.9107506,8.82802,-0.009773844,0.08552113,0.08735373,-4.107,2.761,-35.47,1
-0.545878,2.9825768,8.950125,0.022296581,0.10720685,0.061391957,-3.463,2.427,-35.47,1
-0.45130703,3.0310593,8.980052,-0.015882496,0.014049901,-0.00030543262,-3.463,2.427,-35.778,1
-0.3716998,3.0693667,8.929773,-0.04886922,-0.02076942,0.053450707,-3.141,2.117,-35.778,1
-0.47225627,2.707842,9.288305,-0.07971791,-0.031154128,-0.04062254,-3.141,2.117,-35.778,1
-0.5069722,2.9322984,8.974067,0.15057829,-0.06719518,0.018936822,-3.141,2.45,-35.778,1
-0.130484,2.984971,8.981848,0.01740966,-0.16218472,-0.032986723,-3.485,2.45,-35.778,1
-0.272939,2.9215245,9.184157,-0.016798794,0.007330383,-0.004886922,-3.485,2.45,-35.778,1
-0.2825158,2.866458,9.487623,0.002443461,0.029321533,0.04642576,-3.485,2.45,-35.778,1
-0.41718966,3.0131028,9.264962,0.043982297,0.038789943,0.016187929,-3.485,2.45,-35.778,1
-0.44891283,2.9281087,9.08001,-0.04153884,0.035430185,0.018020526,-3.825,2.45,-35.778,1
-0.3764882,3.093907,8.862138,0.015271631,0.05009095,0.04062254,-4.133,2.45,-35.778,1
-0.41240123,2.9484594,9.244612,-0.10995574,-0.022296581,-0.020463986,-4.133,2.45,-35.778,1
-0.362123,2.955642,8.6712,0.049480084,-0.028099801,-0.022602014,-3.431,2.127,-35.778,1
-0.15622166,3.0933087,9.164406,0.043066,0,0.027488936,-3.761,2.127,-35.778,1
-0.54408234,3.3195608,8.2276745,0.086132,0.14538592,0.07696902,-3.761,2.127,-35.778,1
-0.8475474,3.05141,9.812635,-0.18967366,0.24709499,0.041233405,-3.761,2.127,-35.778,1
-0.5931635,3.1142578,9.598953,0.09743301,-0.10934488,0.021380283,-3.013,2.432,-35.778,1
-1.0205284,3.2429461,8.285135,0.45081854,0.29077184,0.11881329,-2.702,2.432,-36.096,1
-0.9187749,3.3033998,8.475474,-0.009468411,0.016798794,0.005497787,-2.368,2.117,-36.096,1
-0.8074445,3.1543608,8.727464,-0.020158553,0.026572637,0.032375857,-1.713,1.448,-36.407,1
-0.7260417,3.2872388,9.726444,-0.03848451,0.09315695,0.052534413,-1.396,1.448,-36.407,1
-1.0510546,3.3267434,8.580819,-0.04153884,0.12217305,-0.008552114,-1.396,1.773,-36.73,1
-1.1546037,3.0969,9.102157,-0.12614368,-0.06352998,0.003970624,-1.396,2.099,-36.73,1
-1.0845734,3.0202854,8.725668,-0.02443461,-0.19822577,-0.050701816,-1.396,2.099,-36.73,1
-0.8355764,2.8933928,8.617331,0.029932396,-0.23426682,-0.05497787,-1.396,2.404,-36.73,1
-0.74519527,3.1771057,9.346964,0.102319926,0.049785517,0.033292156,-1.705,2.404,-36.427,1
-0.92416185,3.1794999,9.127894,0.09712757,0.16982053,0.16493362,-2.339,2.404,-36.111,1
-0.9247604,3.2495303,9.81503,0.0067195175,0.28619036,-0.061086524,-2.339,2.03,-36.111,1
-0.9151836,3.651756,8.820239,-0.30879238,-0.1957823,-0.06688975,-1.585,1.719,-36.111,1
0.30526072,2.7964275,8.986636,-0.40622538,-0.7993172,-0.0720821,-1.21,1.719,-36.111,1
-0.26036942,2.3391352,9.160215,-0.41233405,-0.40133846,0.004276057,-2.659,2.743,-35.801,1
0.41599256,2.7605145,9.653421,0.02076942,-0.16340645,-0.013133603,-3.651,3.759,-35.467,1
-0.8487445,1.6370354,9.76535,-0.52626044,0.31337386,-0.06261369,-4.353,4.141,-35.467,1
-0.40402153,2.1763294,9.196728,0.14844026,0.087964594,0.009468411,-4.353,4.792,-35.467,1
-0.35194764,2.3020248,9.19134,0.14996742,0.10873401,0.07269296,-4.353,5.096,-35.467,1
-0.57400984,2.146402,9.485827,-0.058337633,0.03176499,-0.013133603,-3.704,5.096,-35.467,1
-0.46986207,2.4199393,8.851364,0.14049901,-0.089186326,-0.0143553335,-3.367,4.794,-35.467,1
-0.50278234,2.1906946,9.316438,0.01282817,-0.037873644,-0.024740042,-3.01,4.794,-35.467,1
-0.4973954,2.480393,9.0237465,0.04642576,0.031154128,-0.0030543262,-3.327,4.794,-35.797,1
-0.45010993,2.3139958,9.515156,-0.014660766,0.013744468,0.017104227,-3.657,4.794,-35.797,1
-0.3776853,2.408567,9.23264,0.03634648,-0.024129177,0.03176499,-3.657,4.794,-35.797,1
-0.32561144,2.408567,9.083003,0.0018325958,0,0.046731193,-3.657,4.473,-35.797,1
-0.28191724,2.5073278,9.154829,0.016798794,-0.04184427,0.015577064,-3.657,4.473,-35.797,1
-0.15981296,2.44448,9.49301,-0.023518313,-0.063224554,-0.022602014,-4.008,4.473,-35.485,1
-0.3609259,2.4624364,9.1668,0.057726767,-0.024129177,-0.013133603,-4.318,4.473,-35.485,1
-0.35194764,2.4791958,9.046491,0.025961773,-0.013133603,-0.004581489,-4.014,4.122,-35.485,1
-0.44113165,2.3636756,9.296086,-0.013439035,0.0015271631,-0.009468411,-3.692,4.122,-35.485,1
-0.2621651,2.529474,9.10455,0.07574729,-0.064446285,0.00061086525,-3.692,4.122,-35.485,1
-0.22924481,2.5617957,9.24521,0.04795292,-0.069027774,-0.046120327,-3.692,4.122,-35.485,1
-0.06284779,2.6318262,9.165004,0.05681047,-0.070554934,-0.021380283,-4.005,3.822,-35.485,1
-0.24600422,2.6204538,9.450513,0.009162978,0.021991149,0.007941248,-4.321,3.822,-35.485,1
-0.25977087,2.6916811,8.948329,0.048563786,0.03573562,-0.0143553335,-4.321,3.477,-35.485,1
-0.14065935,2.5845408,9.021951,0.03970624,0.0021380284,0.004581489,-4.008,3.477,-35.485,1
0.038905777,2.7407625,9.130288,0.1881465,-0.09010262,-0.080634214,-4.008,3.129,-35.485,1
-0.24779987,3.0579941,9.123106,0.041233405,0.19272798,-0.004276057,-4.008,2.818,-35.485,1
-0.5303157,3.139397,9.123704,0.05589417,0.11301007,0.17806722,-4.348,2.499,-35.485,1
-0.50278234,3.469797,8.086416,0.40530908,0.1853976,0.079107046,-4.348,2.16,-35.485,1
-0.51595044,3.198055,9.243414,-0.124005646,-0.070249505,-0.050396383,-3.965,1.838,-35.485,1
-0.40940848,3.2040405,8.9998045,-0.10048734,-0.098043874,-0.057726767,-3.66,1.838,-35.485,1
-0.15322891,2.9388826,9.423578,-0.22052236,-0.013439035,-0.016493361,-3.66,1.838,-35.485,1
-0.31423897,3.0951042,9.272144,0.07086037,0.10476339,0.03970624,-3.66,1.838,-35.485,1
-0.38845924,3.448249,8.030751,0.22693644,0.067500606,0.060170226,-3.66,1.838,-35.485,1
-0.2220622,3.2255883,8.717288,0.09315695,0.12217305,0.0143553335,-3.66,1.838,-35.485,1
-0.9720459,3.4195185,9.52593,-0.13072516,0.3100141,0.0693332,-3.66,1.487,-35.485,1
-0.6159084,3.4488475,9.123106,0.064446285,0.087964594,0.058337633,-3.303,1.487,-35.485,1
-0.7062895,3.3620577,7.7428484,-0.008552114,-0.15271631,-0.09773844,-2.659,1.173,-35.786,1
-0.29448682,2.8089972,9.258378,-0.50793445,-0.5555819,-0.21135938,-3.022,1.496,-35.786,1
-0.4213795,2.9167361,9.5570545,0.0030543262,-0.07086037,-0.018325957,-3.799,2.13,-35.786,1
-0.34955344,3.0508115,9.337387,0.106595986,-0.11484267,0.01740966,-4.475,2.45,-35.441,1
-0.30825347,3.2585084,8.426991,0.14263703,-0.20555615,-0.13683382,-4.475,2.45,-35.441,1
0.260968,3.29502,8.790312,-0.07696902,-0.16707164,0.0030543262,-4.475,2.117,-35.441,1
-0.31603462,2.6629508,9.48463,-0.5513059,-0.12003502,-0.015882496,-4.818,2.117,-35.441,1
-0.26874915,2.541445,9.1512375,-0.16126843,-0.017715093,0.017104227,-5.146,2.832,-35.441,1
-0.2741361,2.2385786,9.57142,-0.060170226,0.074830994,0.049480084,-5.146,3.585,-35.441,1
-0.15682021,2.7688942,9.955689,-0.063224554,-0.027794369,0.025045475,-5.146,3.929,-35.441,1
-0.13467385,2.665345,8.5473,0.15149458,0.008246681,0.049785517,-5.146,3.929,-35.441,1
-0.008978256,2.818574,8.726267,0.21899518,0.044593163,0.07391469,-5.146,3.929,-35.441,1
-0.5931635,2.415151,9.8683,-0.30390546,0.12522738,0.05467244,-4.826,3.602,-35.441,1
-0.17417817,2.8042088,9.489418,0.08124508,-0.017104227,0.016187929,-4.826,3.279,-35.441,1
-0.42078096,2.955642,8.33242,0.26542094,0.3145956,0.1414153,-4.507,3.279,-35.441,1
-0.66379243,2.7605145,9.519944,0.18509217,-0.071776666,0.017104227,-4.183,2.627,-35.441,1
0.21188685,4.003105,8.337808,0.4831944,-0.1695151,0.06841691,-4.183,2.627,-35.441,1
-0.48003745,3.4099417,8.469488,-0.013744468,0.17806722,0.065973446,-4.183,1.995,-35.441,1
-0.40102878,3.4955344,9.569026,-0.07452556,0.25381452,0.07544186,-4.183,1.296,-35.441,1
-0.39085343,3.7056258,8.326435,0.4025602,0.23915374,-0.089491755,-3.804,0.996,-35.441,1
-1.1941081,3.1052797,7.231686,-0.5335908,0.15332718,-0.058643065,-3.048,0.663,-35.752,1
-0.30346507,2.6473885,9.510367,-0.59864795,-0.40591997,-0.16584991,-3.048,1.412,-35.752,1
-0.39983168,2.949058,9.002198,0.21227567,-0.32498032,-0.16065755,-3.378,2.239,-35.752,1
-0.545878,2.5396495,9.261371,-0.30024028,-0.1740966,-0.10415252,-3.785,2.909,-35.752,1
-0.32142156,2.5246856,9.301474,0.28252518,0.16737708,0.10903945,-4.118,2.909,-35.752,1
-0.7691373,3.3333273,7.937377,0.37293324,0.49021935,0.27305678,-4.118,2.909,-35.752,1
-0.85772276,3.2603042,8.604761,-0.061391957,-0.12950343,-0.063224554,-3.427,2.583,-35.752,1
-0.35075054,2.7521348,9.552865,-0.4578435,-0.3811799,-0.18753563,-3.115,2.583,-35.752,1
-0.32022446,2.6994624,9.31524,-0.05589417,-0.17287487,-0.09254608,-3.454,2.914,-35.752,1
-0.2220622,2.4558525,9.519944,0.19547687,0.036957346,-0.03359759,-3.759,3.215,-35.752,1
-0.48003745,2.8275523,8.825626,0.054061573,-0.0720821,-0.08246681,-4.071,3.547,-35.752,1
-0.29867667,2.7269957,8.913014,-0.0070249503,-0.21135938,-0.12583824,-4.071,3.547,-35.752,1
-0.362123,2.597709,9.046491,0.09407325,0.030543262,0.032375857,-4.391,3.547,-35.752,1
-0.33877954,2.8167782,8.917204,0.04917465,0.08552113,0.048258353,-4.391,3.547,-35.752,1
-0.4405331,2.7760768,9.093178,0.090713486,0.25045475,0.12217305,-4.391,3.547,-35.43,1
-0.60453594,2.6916811,9.309854,0.08735373,-0.03023783,-0.013133603,-4.08,3.21,-35.746,1
-0.56982,3.1070752,9.276335,0.10781772,0.06719518,0.07422013,-3.771,2.906,-35.746,1
-0.52852005,3.0238767,8.714295,0.09315695,0.064751714,0.06047566,-3.771,2.906,-35.746,1
-0.59615624,3.1256304,8.728661,0.008857546,0.0027488936,-0.03145956,-4.084,2.906,-35.746,1
-0.5363012,3.0370448,8.843582,0.19914207,-0.065973446,0.03726278,-4.084,2.906,-35.746,1
-0.40761283,3.0322564,9.387066,0.13439035,-0.10934488,-0.028099801,-4.084,2.906,-35.746,1
-0.33518824,3.38181,8.587403,0.49663344,-0.5317582,-0.16462818,-4.084,1.866,-35.746,1
-0.29448682,3.550601,8.346188,0.36682457,-0.3387248,-0.052839845,-4.084,1.065,-35.746,1
0.8038532,4.44723,8.492233,0.20830505,-0.116675265,0.07819075,-5.198,-0.021,-35.441,1
0.45370123,4.175488,9.068638,-0.07238753,0.17989981,0.0870483,-5.506,-0.682,-35.441,1
0.089184016,4.2718544,9.053075,-0.29657507,0.5421429,0.19883664,-5.506,-1.013,-35.122,1
-1.2210429,3.3913867,8.431181,0.01282817,0.8145888,-0.043066,-4.38,-1.013,-35.122,1
-1.2677298,3.0430303,8.203134,-0.56016344,0.31490102,0.02321288,-2.897,-0.672,-35.791,1
-0.81642276,2.8802247,9.546879,-0.5342017,-0.35002577,-0.21410827,-2.238,0.527,-36.405,1
-0.4225766,3.318962,8.653243,-0.23823744,-0.20555615,-0.058337633,-2.238,1.544,-36.405,1
-0.48123455,2.879626,9.080608,-0.009468411,-0.058643065,0.061391957,-3.288,1.872,-36.405,1
-0.3842694,2.8514943,9.394848,-0.057726767,-0.20280726,-0.008552114,-3.602,2.221,-36.103,1
-0.35913026,3.3267434,8.89446,0.36285394,0.099571034,0.1151481,-3.944,2.221,-36.103,1
-0.45130703,3.3554738,8.616732,0.20311269,0.36865717,0.13897185,-3.944,1.887,-35.784,1
-0.78290397,3.513491,9.576208,-0.15241088,-0.15974127,-0.099571034,-3.277,1.177,-35.784,1
-0.724246,3.530849,9.03452,-0.27030787,-0.15027285,0.00580322,-2.539,0.794,-35.784,1
-0.41958386,3.1435869,9.122507,-0.19730948,-0.34116822,-0.04337143,-2.856,0.794,-35.784,1
-0.6356605,3.1914709,8.750807,0.0729984,-0.12156218,-0.06780604,-3.182,1.121,-35.784,1
-0.5859809,3.0753522,8.861539,-0.07086037,0.046120327,-0.010079277,-3.532,1.437,-35.784,1
-0.5626374,3.020884,8.881291,-0.12675454,0.067500606,-0.005192355,-3.532,1.742,-35.784,1
-0.41000703,3.063381,8.883685,-0.03023783,-0.076052725,0.006414085,-3.532,2.055,-35.784,1
-0.3172317,2.7766755,8.907627,-0.29443705,-0.21135938,-0.12980886,-3.532,2.357,-35.784,1
-0.24779987,2.6779146,9.270349,-0.20372356,-0.19761491,-0.08246681,-3.86,2.668,-35.784,1
-0.24660277,2.6611552,9.049484,0.058948494,-0.09773844,-0.0106901415,-4.165,2.987,-35.784,1
-0.3369839,2.6102784,9.070433,-0.0018325958,0.052534413,-0.007941248,-4.165,2.987,-35.784,1
-0.3681085,2.6635494,8.848371,0.09560041,0.070554934,0.010079277,-4.165,2.987,-35.784,1
-0.23702596,2.6288335,9.1512375,0.01740966,-0.051923547,-0.013439035,-4.49,2.987,-35.784,1
-0.18255788,2.690484,9.226056,0.014049901,-0.064446285,-0.040317107,-4.791,3.289,-35.784,1
-0.3369839,2.8395233,9.267955,0.10476339,-0.009468411,-0.02321288,-4.791,3.289,-35.784,1
-0.19871874,2.7503393,9.391854,-0.04550946,-0.022602014,0.020463986,-4.791,3.289,-35.784,1
-0.22924481,2.866458,9.020754,0.07727446,-0.057421334,0.014049901,-4.791,2.966,-35.784,1
-0.3184288,2.914342,8.887876,0.08155051,0.021991149,0.047647487,-4.791,2.633,-35.784,1
-0.36152446,2.9125464,8.899846,0.07269296,0.032375857,0.018020526,-4.791,2.299,-35.784,1
-0.26994625,3.0879216,8.72088,0.019547688,-0.038789943,-0.011911872,-4.473,2.299,-35.784,1
-0.14305355,2.8455088,9.308656,-0.07422013,0.031154128,-0.0033597588,-4.473,2.299,-35.784,1
-0.2220622,2.883816,9.349358,-0.15821409,0.0143553335,0.009162978,-4.473,2.299,-35.784,1
-0.16220717,2.9658175,9.164406,-0.07360926,-0.06963864,0.005192355,-4.473,2.299,-35.784,1
-0.16639702,2.8790276,9.303269,-0.0033597588,-0.014049901,0.035430185,-4.473,2.299,-35.784,1
-0.29448682,2.8688521,9.088988,0.034208454,-0.017104227,0.006414085,-4.473,2.299,-35.784,1
-0.0712275,2.815581,8.501212,0.20555615,0.0009162979,0.062308256,-4.473,2.299,-35.784,1
-0.38606504,3.2022448,9.107543,-0.070249505,0.17256944,0.08368854,-4.473,1.983,-35.784,1
-0.11911154,3.3399115,8.954314,-0.007330383,0.11575896,0.24740042,-4.473,1.666,-35.784,1
-0.65541273,3.2076318,8.650849,0.040011674,0.3930918,0.122783914,-4.164,1.666,-35.784,1
-0.59974754,3.0142999,9.537302,0.05131268,0.064446285,0.00061086525,-3.401,1.666,-35.784,1
-0.7625532,3.1250317,8.93576,0.18875736,0.0693332,-0.010995574,-2.757,1.666,-35.784,1
-0.5662287,3.5823243,8.280347,0.4896085,0.05375614,0.08735373,-2.757,1.666,-35.784,1
-1.2120646,3.7361517,7.536947,0.20158553,0.5036584,0.023518313,-2.757,1.283,-36.09,1
-0.91099375,3.3237505,9.504382,-0.34147367,-0.103847094,-0.01282817,-2.041,0.926,-36.447,1
-0.8822633,3.5302503,9.01776,-0.36987892,-0.31490102,-0.07971791,-1.002,0.926,-36.785,1
-0.4201824,2.8407204,8.887876,-0.10751228,-0.41599923,-0.08979719,-1.329,1.235,-36.785,1
-1.2228385,3.0885203,9.057265,-0.04550946,0.06566802,-0.08307768,-2.525,1.895,-36.454,1
-0.7392098,3.3692403,8.292916,0.3203988,0.048258353,0.19120082,-3.16,1.895,-36.128,1
-0.7308301,3.080739,8.53054,0.016493361,-0.11301007,-0.013439035,-3.16,1.895,-35.816,1
-0.81043726,3.2716765,8.706514,-0.07147124,-0.018020526,-0.007330383,-3.16,1.895,-35.816,1
-0.56084174,3.3135753,9.109938,0.029321533,-0.16646078,-0.06963864,-3.16,1.583,-35.816,1
-0.6715736,3.1693244,8.6017685,0.01740966,-0.08032878,0.024129177,-3.494,1.583,-35.816,1
-0.6943185,3.1627405,8.829217,0.03176499,0.06169739,-0.018325957,-3.494,1.583,-35.816,1
-0.32800564,3.269881,8.95611,-0.14355333,-0.08246681,0.014966198,-3.494,1.583,-35.816,1
-0.14544775,3.0508115,9.514558,0.13927728,-0.11301007,-0.07360926,-3.494,1.583,-35.816,1
-0.25378537,3.1842883,8.340201,0.2180789,-0.13041973,0.011301007,-3.805,1.904,-35.816,1
-0.4866215,3.0699651,8.948928,-0.032986723,-0.07941248,-0.024129177,-4.125,1.904,-35.816,1
0.57520694,3.7900212,8.868123,0.35735616,-0.43310347,0.086437434,-4.461,1.904,-35.508,1
0.33877954,3.5464113,8.67539,0.23854288,-0.24709499,-0.099571034,-4.835,1.602,-35.508,1
-0.22146365,3.2387564,8.748413,0.0421497,0.027488936,-0.032375857,-5.184,0.868,-35.18,1
0.15801731,3.606865,8.951322,-0.20280726,-0.022602014,0.051923547,-5.184,0.54,-35.18,1
-0.19093758,3.2076318,8.971074,-0.17592919,0.09193522,0.009773844,-5.184,0.54,-35.18,1
-0.16819267,3.2261868,8.810662,-0.064751714,0.09743301,0.013744468,-5.493,0.86,-35.18,1
-0.17058687,3.103484,8.853159,-0.10323623,-0.059253927,-0.06169739,-5.493,1.213,-35.18,1
0.17597382,3.0023289,9.080608,-0.23609942,-0.16432275,-0.11148291,-5.169,1.539,-35.18,1
-0.16938977,3.072958,8.963293,0.017104227,-0.053450707,-0.026267206,-5.488,1.849,-35.18,1
0.1412579,2.9496565,9.178771,-0.22449298,-0.18509217,-0.00030543262,-5.488,2.151,-35.18,1
0.26755205,2.8574798,9.060856,0.052534413,0.006414085,-0.0015271631,-5.789,2.151,-35.18,1
-0.0011971008,2.9149406,9.311649,-0.20738874,0.050701816,-0.009162978,-6.147,2.478,-35.18,1
0.23223756,3.117849,9.101558,-0.11575896,0.11881329,0.08277224,-6.466,2.478,-35.18,1
0.025139118,2.802413,8.97646,0.34300083,-0.15088372,-0.054061573,-6.466,2.784,-35.18,1
-0.5201403,2.7234044,8.429385,-0.14935656,0.30787608,0.010995574,-6.108,2.784,-35.18,1
-0.24420857,2.6473885,9.391256,-0.3100141,0.17623462,0.0888809,-5.775,2.784,-35.18,1
-0.09636662,2.790442,9.057265,0.01740966,-0.015577064,0.044593163,-5.082,3.096,-35.18,1
-0.24540567,2.7665,8.560468,0.32253686,-0.03359759,-0.047036625,-4.769,3.096,-35.496,1
-0.3573346,2.5737667,8.879496,0.081855945,0.060170226,0.0571159,-4.769,3.096,-35.496,1
-0.26755205,3.1040826,8.683171,0.35735616,0.129198,0.009773844,-4.769,3.096,-35.496,1
-0.40282443,2.7222073,8.967483,-0.23090707,0.063224554,0.005192355,-4.461,3.096,-35.496,1
-0.5386954,2.2254105,9.507974,-0.0018325958,-0.025350908,0.067500606,-4.461,3.096,-35.496,1
-0.24540567,3.3512838,8.764574,0.13591751,0.0729984,0.10781772,-4.158,2.427,-35.496,1
-0.10235212,3.1872811,8.622119,0.16646078,-0.08674286,0.10262536,-4.158,2.114,-35.496,1
-0.80564886,2.991555,9.38168,-0.0009162979,0.44593164,0.15302174,-4.158,1.808,-35.496,1
-1.3389573,3.3171666,8.2593975,0.0693332,0.39767328,0.06872234,-4.158,1.808,-35.809,1
-1.1893197,3.1866825,8.337808,-0.24312437,0.07727446,0.034208454,-3.427,1.808,-35.809,1
-0.623091,2.8419175,9.051878,-0.39584067,-0.31490102,-0.16646078,-3.062,2.137,-36.114,1
-0.21667525,2.5408466,9.460688,-0.3032946,-0.3286455,-0.10354166,-3.062,2.49,-36.114,1
-0.13467385,2.6180596,9.308058,-0.08093964,-0.27030787,-0.025350908,-3.788,3.138,-35.794,1
-0.4309563,2.759916,8.370728,0.5338962,-0.063224554,0.094989546,-4.472,3.475,-35.462,1
-0.48123455,2.5127146,9.260772,-0.30909783,0.09865474,-0.025350908,-5.143,3.781,-35.462,1
-0.17597382,2.6258407,8.885481,0.03573562,-0.09865474,0.015882496,-5.143,3.781,-35.462,1
-0.23822308,2.5300727,8.868123,0.1337795,-0.06627888,-0.023823744,-4.823,3.781,-35.462,1
-0.0664391,2.468422,9.312247,-0.013744468,-0.024740042,0,-4.823,3.781,-35.462,1
-0.008978256,2.7808652,8.897452,0.26450464,-0.13194689,-0.02687807,-4.823,3.781,-35.462,1
0.10414778,2.939481,9.054273,0.29840767,-0.03756821,0.007330383,-5.16,3.46,-35.462,1
0.18016368,3.0597897,8.787917,0.38026363,-0.099265605,0.043676864,-5.476,2.79,-35.462,1
0.24301147,3.3267434,8.798093,0.18997909,-0.009162978,0.005192355,-5.476,2.026,-35.462,1
-0.109534726,3.265691,9.022549,0.0580322,0.032070424,0.053450707,-5.476,1.708,-35.462,1
0.11671733,3.208829,8.653243,-0.11728613,-0.086437434,-0.054367006,-5.476,1.394,-35.462,1
0.20410569,3.0490158,9.279925,-0.21868975,0.021685716,-0.027794369,-5.476,1.394,-35.462,1
-0.044891283,2.8700492,9.160814,-0.093462385,0.030848695,-0.03176499,-5.787,1.699,-35.462,1
0.046088383,3.0370448,8.8567505,0.11209377,0.07238753,-0.0067195175,-5.48,1.699,-35.462,1
0.023942016,3.17531,9.053674,0.036651913,0.07574729,0.0036651916,-5.48,2.001,-35.462,1
-0.19273324,3.0232782,8.954314,-0.0015271631,0.03604105,0.008552114,-5.48,2.001,-35.462,1
-0.110731825,2.9789855,9.111733,-0.03268129,-0.00580322,0.002443461,-5.148,2.001,-35.462,1
0.013766659,3.0071173,9.137471,-0.016187929,-0.03604105,-0.03176499,-5.148,2.001,-35.462,1
-0.027533319,3.0059202,9.072228,0.019242255,-0.0070249503,0.004276057,-4.815,2.001,-35.462,1
-0.025139118,3.091513,8.698733,0.047036625,-0.00030543262,0.011911872,-4.815,2.001,-35.462,1
-0.025737667,2.9987376,8.99322,-0.028405234,-0.0070249503,-0.0067195175,-4.815,2.001,-35.462,1
0.05805939,3.0262709,8.900445,-0.13836098,-0.00061086525,-0.038789943,-4.815,2.001,-35.462,1
0.002992752,2.8299465,8.987833,-0.069027774,-0.039095376,-0.04520403,-4.815,2.001,-35.462,1
-0.04249708,2.8209682,8.962694,0.06963864,0.058337633,-0.04062254,-4.815,2.326,-35.462,1
-0.11851298,2.9047651,9.136872,0.064446285,-0.0061086523,0.021685716,-4.815,2.326,-35.462,1
-0.18016368,2.9454668,9.285912,0.059864793,0.013744468,-0.0036651916,-5.14,2.326,-35.462,1
0.038905777,2.9269116,9.029133,0.13805555,-0.0720821,-0.01038471,-5.14,2.326,-35.462,1
-0.050278235,3.2495303,8.767567,0.043066,-0.01863139,-0.025350908,-5.14,2.008,-35.784,1
-0.05327099,3.0370448,8.926781,0.03481932,-0.06688975,-0.0036651916,-5.14,2.008,-35.784,1
-0.10055647,3.0597897,9.095572,0.021380283,-0.015882496,-0.002443461,-5.14,2.008,-35.426,1
0.32142156,3.2585084,9.267955,0.26511553,-0.1151481,0.04184427,-5.14,1.683,-35.426,1
-0.023343466,3.2190042,9.127894,0.09621128,0.13103059,0.1600467,-5.14,1.359,-35.426,1
-0.20649989,3.750517,8.847773,0.103847094,0.21502456,0.1386664,-5.14,1.057,-35.426,1
-0.16699557,3.4799721,8.659229,-0.016187929,-0.099571034,0.00061086525,-5.14,1.057,-35.124,1
-0.19033903,3.4644098,8.933365,-0.08582657,-0.07941248,-0.043676864,-5.14,0.724,-35.124,1
-0.3764882,3.0496144,8.788516,-0.04917465,-0.092240654,-0.0571159,-5.14,0.724,-35.124,1
0.5117606,3.6284127,8.789713,0.062308256,-0.18234327,-0.043982297,-5.14,0.724,-35.124,1
-0.11971009,3.4518404,8.661623,0.18203785,-0.14172074,-0.10170906,-5.14,0.724,-35.124,1
0.06703765,3.5553896,8.6496525,0.048258353,0.2593123,0.06566802,-5.838,0.724,-35.124,1
-0.10534488,3.2716765,9.710283,-0.26297748,0.19883664,0.031154128,-5.838,0.724,-34.819,1
0.14185645,3.5093012,8.231265,0.121256754,-0.15118915,-0.029932396,-5.838,0.724,-34.819,1
-0.040102877,3.232771,9.028535,-0.28405234,-0.15790866,-0.09987647,-5.471,0.724,-35.125,1
-0.14425065,2.9616275,9.461885,0.040927973,0.037873644,-0.009468411,-5.471,1.034,-35.125,1
0.25378537,3.1244333,9.273342,0.08979719,0.065973446,0.08460484,-5.471,1.034,-35.125,1
0.43754035,3.7373488,8.879496,0.6737844,0.2144137,0.15485434,-5.471,0.729,-35.125,1
-1.0001777,4.257489,8.14687,0.16462818,0.71593404,0.13194689,-4.786,0.079,-35.125,1
-0.60932434,4.3688197,8.863934,0.09712757,0.18478674,-0.04062254,-3.965,-0.968,-35.125,1
-0.9540894,3.83192,8.331821,-0.40561453,0.004276057,-0.07971791,-3.208,-1.275,-35.433,1
-0.61650693,3.3147724,8.622119,-0.58184916,-0.37995818,-0.20341812,-3.208,-0.962,-35.746,1
0.10354923,3.1262288,9.506178,-0.5626069,-0.52381694,-0.183565,-3.828,0.21,-35.746,1
0.19393034,2.9999347,8.969278,-0.101098195,-0.32467487,-0.087964594,-4.898,1.408,-35.423,1
0.08678981,2.822764,9.149442,-0.03756821,0.011911872,0.013133603,-5.25,1.736,-35.423,1
0.093373865,2.8078,9.180567,-0.10598512,-0.00030543262,0.03359759,-5.563,2.04,-35.423,1
-0.013766659,2.9771898,9.028535,-0.0015271631,-0.014660766,0.003970624,-5.563,2.04,-35.423,1
-0.009576807,2.9735985,9.115324,0.0125227375,0.00030543262,0.0125227375,-5.563,2.04,-35.423,1
0.0676362,2.9831753,8.959702,0.005497787,-0.0030543262,0.0076358155,-5.563,2.04,-35.095,1
0.07062895,3.004723,9.120112,0.019242255,-0.025350908,0.0027488936,-5.563,2.04,-35.095,1
0.076614454,3.0735564,8.980052,0.053145275,-0.0030543262,0.010079277,-5.563,2.04,-35.095,1
0.15442601,3.0556,9.030331,0.048563786,-0.048258353,0.015882496,-5.563,2.04,-35.095,1
0.091578215,3.1238346,8.946533,0.0036651916,0.0061086523,0.03359759,-5.563,2.04,-35.095,1
0.010175358,3.1190462,9.024943,-0.017715093,0.06536258,0.027794369,-5.563,1.716,-35.095,1
-0.020949265,3.1585505,9.049484,-0.03756821,0.07238753,0.029626964,-5.563,1.716,-35.095,1
-0.18076223,2.9987376,9.094974,-0.12492194,0.16126843,0.0580322,-5.229,1.716,-35.095,1
-0.073023155,3.0615854,9.081805,-0.03756821,-0.00580322,0.040927973,-5.229,1.716,-35.095,1
-0.06284779,3.0693667,8.959702,0.03176499,-0.007330383,0.013439035,-4.907,1.716,-35.095,1
0.011971008,3.0561984,9.023148,0.020463986,0.01740966,0.015577064,-4.907,1.716,-35.095,1
-0.12988544,3.1004913,8.763377,0.025045475,0.03573562,0.013133603,-4.907,1.716,-35.095,1
-0.09756372,3.1495724,9.235035,0.022296581,0.010995574,0.014660766,-4.907,1.716,-35.095,1
-0.059855044,3.288436,9.150041,0.14752395,0.08307768,-0.022907447,-4.907,1.716,-35.095,1
-0.25617957,3.1214404,8.285733,0.016798794,-0.064751714,0.014049901,-4.907,1.716,-35.095,1
0.26156655,3.1597476,9.390657,0.03848451,-0.03848451,-0.0018325958,-4.907,1.716,-35.095,1
0.022744916,3.2094274,8.781932,0.043982297,-0.110872045,-0.018936822,-5.209,1.716,-35.095,1
-0.0047884034,3.426701,9.411008,-0.09682214,0.03604105,0.023823744,-5.52,1.716,-35.095,1
0.3477578,3.5763388,9.057863,0.14996742,-0.0076358155,0.10598512,-5.52,1.716,-35.095,1
-0.023343466,3.4261026,8.909423,-0.03023783,0.13713925,0.021991149,-5.52,1.388,-35.095,1
0.12030864,3.496133,9.196129,0.26145032,0.14538592,0.092240654,-5.882,1.388,-35.095,1
-0.50397944,4.0414124,8.341997,0.21868975,0.6374379,0.1966986,-4.988,0.631,-35.095,1
-0.6985083,3.9396589,8.67539,0.21288654,0.38056904,0.00061086525,-2.896,-0.361,-35.095,1
-1.1204864,3.655946,8.228871,-0.52381694,0.2003638,-0.09560041,-2.572,-0.735,-35.429,1
-0.16998832,3.245939,9.107543,-0.42302418,-0.47311515,-0.30634892,-2.273,-0.083,-35.429,1
-0.7248446,2.6443958,9.451111,-0.38453966,-0.1301143,-0.10781772,-2.583,1.086,-35.429,1
-0.24959552,2.9418752,9.045893,0.11301007,-0.09315695,0.03023783,-3.242,1.82,-35.429,1
-0.5141548,3.0190883,8.948928,0.1020145,-0.04734206,0.025961773,-3.869,2.476,-35.429,1
-0.41060558,2.871845,9.155427,0.002443461,-0.0720821,-0.013133603,-4.176,2.476,-35.429,1
-0.28790274,3.4883518,9.14585,0.30848694,0.061086524,-0.022602014,-4.176,2.476,-35.429,1
-0.3752911,3.1477766,8.860941,0.038179077,-0.094989546,0.062002823,-4.519,2.171,-35.429,1
-0.006584055,3.3375173,8.326435,0.14385876,0.03268129,0.09865474,-4.824,2.171,-35.102,1
-0.9876082,3.2321723,9.087791,-0.16829337,0.47678033,-0.061086524,-5.145,2.171,-35.102,1
-0.87687635,3.4213142,9.522339,-0.20586158,-0.07849618,0.025961773,-4.486,1.86,-35.102,1
-0.18854338,3.2986114,9.062054,-0.1469131,-0.4260785,-0.10995574,-3.863,1.86,-35.414,1
0.22984336,2.9981391,9.181764,-0.027794369,-0.40500367,0.03573562,-3.863,1.86,-35.414,1
0.14784196,3.0418332,8.797494,-0.0076358155,-0.069027774,0.04062254,-4.931,1.86,-35.414,1
0.1412579,3.1950622,8.662222,0.14202617,0.109650314,0.01160644,-4.931,1.86,-35.414,1
-0.3465607,3.3919852,8.735245,-0.21319197,0.18417588,0.032986723,-4.931,1.86,-35.414,1
0.0035913025,3.4261026,8.218098,0.004581489,-0.043676864,0.024740042,-4.931,1.522,-35.414,1
0.025139118,3.0029275,9.372701,-0.18173242,0.027794369,-0.01740966,-4.931,1.522,-35.111,1
-0.08559271,3.0825348,8.935161,-0.04550946,0.004581489,0.0070249503,-4.931,1.829,-35.111,1
-0.17597382,3.1094694,8.684967,0.035430185,-0.02076942,0.0036651916,-4.602,1.829,-35.111,1
-0.078410104,3.1824925,8.543709,-0.10629055,-0.027488936,0.042760566,-4.602,2.154,-35.111,1
0.017956512,2.6803088,9.671976,-0.25686884,0.052534413,0.08002335,-4.602,2.496,-35.111,1
-0.2669535,2.6797101,9.179369,0.040317107,0.07819075,0.01038471,-4.602,2.804,-35.111,1
-0.1933318,2.831742,8.635287,-0.02076942,0.116675265,0.043066,-4.602,3.115,-35.111,1
-0.16639702,2.7395654,9.09617,-0.09621128,-0.0009162979,0.017104227,-4.602,3.115,-35.111,1
-0.10354923,2.6102784,9.296685,-0.06291912,-0.04734206,-0.00030543262,-4.267,3.115,-35.111,1
-0.008379706,2.8275523,8.904634,0.18234327,-0.30115658,-0.11362094,-4.267,3.115,-35.111,1
0.20709845,2.8054059,9.431359,-0.055588737,-0.021991149,-0.009162978,-4.267,3.115,-35.111,1
-0.030526072,2.8874073,8.857349,0.25045475,-0.15821409,-0.03359759,-4.579,2.803,-35.111,1
0.2741361,2.9053638,9.1350765,0.06658431,-0.049480084,-0.016493361,-4.579,2.485,-35.111,1
0.13706805,3.0681696,8.849568,0.095294975,0.040317107,0.025961773,-4.885,2.131,-35.111,1
0.0796072,3.0974984,8.877101,-0.025350908,-0.00030543262,0.0018325958,-5.192,2.131,-35.111,1
0.29209262,3.1986535,8.849568,0.11209377,0.0067195175,-0.0015271631,-5.509,2.131,-35.111,1
0.10235212,3.0101101,9.004593,-0.02076942,0.06811147,0.004276057,-5.509,2.131,-35.111,1
-0.045489833,3.0412347,8.966286,0.022296581,-0.02443461,0.0070249503,-5.509,2.131,-35.111,1
0.362123,3.3255463,8.658031,0.25595254,-0.07391469,-0.016493361,-5.191,2.131,-35.111,1
0.02633622,3.1830912,9.18715,0.06994407,0.06994407,0.01282817,-5.191,1.817,-35.111,1
0.06464344,3.2507274,8.811859,-0.022296581,-0.052534413,0.047036625,-5.506,1.817,-35.111,1
0.10175357,3.165733,8.879496,0.035124753,0.04184427,-0.007330383,-5.506,1.817,-35.111,1
0.16699557,3.1064768,9.120112,-0.050396383,0.06566802,0.011301007,-5.506,1.817,-35.111,1
-0.06584055,3.2142158,9.005191,-0.0076358155,0.013133603,0.006414085,-5.506,1.817,-35.111,1
-0.16759412,3.2668881,8.776545,0.01038471,0.103847094,0.051618114,-5.178,1.817,-35.111,1
-0.29568392,3.405752,8.830415,0.10934488,0.22876903,0.03756821,-4.864,1.817,-35.111,1
-0.260968,3.4680011,8.740033,-0.1142318,0.004276057,-0.01282817,-4.864,1.817,-35.111,1
0.090381116,3.1214404,9.4972,-0.17012598,-0.19761491,-0.102319926,-4.864,1.817,-35.111,1
0.11552023,3.3614593,8.989629,0.15821409,-0.03145956,-0.0290161,-4.864,1.817,-35.111,1
-0.078410104,3.139397,8.453327,-0.40317106,0.009773844,-0.06505715,-4.864,1.817,-35.111,1
-0.091578215,2.7419596,9.614515,-0.15210545,0.19120082,-0.032375857,-5.554,2.122,-35.111,1
-0.11971009,2.943671,9.053075,-0.07880162,0.004581489,0.041233405,-5.554,2.751,-35.111,1
0.107140526,2.9299042,8.941745,0.06414085,-0.064751714,0.023518313,-5.203,2.751,-35.111,1
-0.06284779,2.7940333,8.867524,0.062308256,-0.09193522,-0.0067195175,-5.203,2.751,-35.111,1
-0.073023155,3.1226375,9.099762,-0.040927973,-0.061391957,0.06047566,-5.203,2.751,-35.111,1
-0.044292733,2.883816,9.597756,0.04795292,0.12767084,0.009468411,-5.203,2.751,-35.111,1
-0.15682021,3.0340521,8.762179,0.18295415,0.04642576,0.121256754,-5.203,2.751,-35.111,1
0.18016368,3.1998506,8.5299425,0.22876903,0.01863139,0.18692477,-5.203,2.751,-35.111,1
-0.19812019,3.140594,9.078813,0.16218472,0.24923302,0.18509217,-5.203,2.751,-35.111,1
-1.0953473,3.393781,8.264784,0.13805555,0.4841107,0.13683382,-4.379,2.133,-35.423,1
-0.49320555,3.0873232,8.376115,-0.021380283,0.021685716,-0.074830994,-3.329,1.809,-35.745,1
-0.599149,3.0921116,8.608353,-0.32498032,-0.2284636,-0.17928895,-3.329,1.809,-35.745,1
-0.2100912,2.6623523,9.5732155,-0.25595254,-0.26175576,-0.12461651,-3.694,2.148,-35.745,1
-0.12569559,2.883816,9.071032,0.02687807,-0.09407325,0.004581489,-4.034,2.455,-35.432,1
0.13108255,2.8604724,9.472659,0.16157386,-0.014049901,-0.02565634,-4.034,2.758,-35.432,1
0.030526072,3.276465,8.678383,-0.057726767,0.16676621,0.013133603,-4.034,2.432,-35.432,1
-0.04189853,3.0148985,9.0081835,-0.33169982,-0.05375614,-0.0067195175,-4.367,2.432,-35.432,1
-0.2896984,2.582745,9.789292,-0.23548855,0.15363261,-0.03023783,-4.367,2.432,-35.432,1
-0.219668,2.8628666,8.986636,0.05681047,-0.03268129,0.0067195175,-4.367,2.796,-35.432,1
-0.14784196,2.7832594,8.816648,0.0018325958,-0.04184427,0.02443461,-4.367,3.1,-35.432,1
-0.2753332,2.5953147,9.287707,-0.14752395,0.09773844,0.047647487,-4.367,3.1,-35.432,1
-0.10295067,2.8000188,9.384672,0.023823744,-0.044593163,0.029626964,-4.367,3.421,-35.432,1
-0.107739076,2.7964275,9.320627,0.16157386,-0.13713925,-0.033292156,-4.367,3.421,-35.432,1
-0.20709845,2.9334955,8.736442,0.07452556,0.009468411,-0.0125227375,-4.367,3.421,-35.432,1
0.18255788,2.8335378,9.238626,-0.12644911,-0.0012217305,-0.0021380284,-4.998,3.421,-35.107,1
-0.035913024,2.8748376,9.252991,-0.027183503,0.008552114,-0.009773844,-4.998,3.105,-35.107,1
-0.28550854,2.8670566,9.003994,-0.015577064,0.083383106,0.02321288,-4.627,3.105,-35.107,1
-0.2172738,2.779668,9.131485,-0.015577064,0.02565634,0.016493361,-4.273,3.105,-35.107,1
-0.26635495,2.8323407,8.985439,-0.005497787,-0.02443461,0.026267206,-4.273,3.105,-35.107,1
-0.0011971008,2.8449101,9.008782,-0.04153884,-0.07574729,-0.06963864,-4.273,3.105,-35.107,1
-0.3309984,2.3301568,9.260174,-0.1432479,-0.081855945,-0.009162978,-4.273,3.105,-35.107,1
-0.092176765,2.767697,8.920197,-0.036957346,-0.062002823,-0.07574729,-4.273,3.105,-35.44,1
0.20410569,2.5252843,9.692925,-0.07971791,-0.07360926,-0.029932396,-4.595,3.419,-35.44,1
0.029927522,2.8832173,8.582615,0.16676621,-0.10751228,-0.049480084,-4.595,3.419,-35.44,1
0.06584055,2.6641479,9.057265,-0.042760566,0.074830994,0.023823744,-4.898,3.419,-35.128,1
-0.107140526,2.7395654,9.245809,-0.07941248,0.095294975,0.02443461,-4.898,3.419,-35.128,1
-0.16639702,2.6042929,8.883685,0.10873401,0.08735373,-0.032986723,-4.898,3.419,-35.128,1
-0.20410569,2.9257145,8.463503,-0.03634648,-0.041233405,-0.028710667,-4.898,3.419,-35.128,1
-0.11911154,2.5528176,9.391854,-0.15790866,-0.04184427,-0.0571159,-4.898,3.419,-35.128,1
-0.2112883,2.6539726,9.066842,-0.009162978,-0.06414085,-0.08093964,-4.898,3.735,-35.128,1
-0.13347675,2.6102784,8.969876,0.024740042,-0.04184427,-0.016493361,-4.898,4.043,-35.128,1
-0.12330139,2.5516205,9.186552,-0.015577064,-0.03176499,0.0036651916,-4.898,4.043,-35.128,1
-0.08439561,2.5719712,9.072827,0.02321288,-0.024740042,0.04428773,-4.898,4.043,-35.443,1
0.12270284,2.5941176,9.306262,0.10354166,-0.08093964,0.017104227,-4.898,4.043,-35.443,1
-0.034715924,2.670732,8.890269,0.040011674,-0.032070424,0.021380283,-4.898,3.738,-35.443,1
0.26276365,2.4875755,10.279505,0.3662137,-0.099265605,0.0580322,-4.898,3.437,-35.443,1
0.20470424,3.7576995,8.010401,1.0461067,-0.029932396,0.13561209,-4.898,2.693,-35.443,1
-0.3321955,3.5529952,8.512584,-0.0070249503,0.35277468,0.08857546,-4.898,1.391,-35.443,1
-0.23582886,3.638588,8.959103,-0.18967366,0.18417588,0.04428773,-4.898,0.608,-35.443,1
-0.79846627,3.6948519,8.4234,-0.039095376,0.4016439,0.11484267,-4.545,0.608,-35.443,1
-0.82240826,3.7942111,9.128492,-0.37995818,0.015577064,-0.02076942,-3.871,0.608,-35.762,1
0.008379706,3.3093853,9.117719,-0.43768495,-0.57604593,-0.2678644,-3.155,0.608,-36.093,1
-0.2100912,3.0945058,8.802282,0.015882496,0.020463986,0.059253927,-3.155,1.318,-36.093,1
-0.28431144,3.0723593,8.739435,0.076052725,0.12034045,0.016187929,-3.814,2.011,-35.746,1
-0.42197806,2.9891608,8.867524,-0.061086524,-0.04550946,-0.014049901,-3.814,2.011,-35.746,1
-0.4177882,2.9682117,9.388264,-0.10995574,-0.15607607,-0.0888809,-3.814,2.011,-35.746,1
0.13227965,3.2136173,9.749189,-0.1432479,-0.13408493,0.042760566,-4.435,2.011,-35.746,1
-0.12389994,3.393781,8.949526,0.4550946,0.087964594,0.0580322,-5.163,2.011,-35.377,1
-0.3842694,3.5763388,8.556278,0.19761491,0.40103304,0.1554652,-5.163,2.011,-35.377,1
-0.7553706,3.5284548,8.825626,-0.051923547,0.15454891,0.07360926,-4.457,1.264,-35.377,1
-0.6655881,3.690662,8.429984,0.03145956,0.07819075,-0.004276057,-3.385,0.924,-35.71,1
-0.7272388,3.6176388,9.474455,-0.105068825,-0.025961773,-0.015271631,-3.067,0.924,-36.061,1
-0.54288524,3.4368765,7.9074497,-0.5867361,-0.1966986,-0.25778514,-2.761,0.924,-36.061,1
0.079008654,2.498948,9.610326,-0.19181168,-0.5662721,-0.1469131,-3.46,1.657,-36.061,1
-0.31124622,2.695871,9.566033,-0.15790866,0.109650314,0.03481932,-4.112,2.404,-35.751,1
-0.1388637,2.979584,8.9279785,-0.007941248,0.021685716,0.031154128,-4.429,2.404,-35.751,1
-0.23702596,2.8485014,9.085397,0.002443461,0.06047566,0.009468411,-4.429,2.706,-35.45,1
0.05805939,3.1142578,9.264363,-0.0018325958,-0.007330383,0.047036625,-4.429,2.706,-35.45,1
-0.01616086,3.0232782,8.635885,0.12980886,-0.07513642,0.07544186,-4.429,2.706,-35.45,1
-0.37110126,2.9173348,9.261371,-0.042455133,-0.05955936,-0.01740966,-4.429,2.706,-35.772,1
-0.29867667,2.979584,8.722675,-0.02687807,-0.13561209,-0.057421334,-4.429,2.706,-35.469,1
-0.20590134,2.8287494,9.244013,-0.07941248,-0.13805555,-0.031154128,-4.745,2.706,-35.469,1
-0.21547815,2.9083564,8.91481,0.034208454,-0.0842994,0.01160644,-4.745,2.706,-35.469,1
-0.026934769,3.1244333,8.09719,0.6808093,-0.04550946,-0.006414085,-4.745,2.706,-35.469,1
0.077213004,3.3171666,8.930971,-0.22357668,-0.00061086525,0.013133603,-4.745,2.706,-35.469,1
-0.06284779,2.9376855,9.08001,-0.12095132,0.0070249503,0.034208454,-5.09,2.706,-35.469,1
-0.10115502,2.8329391,8.896853,0.07666359,-0.06719518,-0.032986723,-5.09,2.706,-35.469,1
0.06284779,2.843713,8.820239,-0.039095376,-0.09254608,-0.035124753,-4.763,2.706,-35.469,1
-0.079008654,2.6677392,9.320028,-0.07696902,0.071776666,0.010995574,-4.763,2.706,-35.148,1
0.06703765,2.6671407,9.287108,-0.15943582,-0.077579886,-0.009773844,-4.763,2.706,-35.148,1
-0.060453594,2.7623103,9.110536,-0.0842994,0.018936822,0.015577064,-4.763,3.042,-35.148,1
0.16819267,2.5983074,9.196129,-0.0033597588,-0.04734206,0.021991149,-5.11,3.358,-35.148,1
0.07182605,2.5091233,8.988432,0.03848451,0.02107485,0.040011674,-5.479,3.703,-35.148,1
0.05327099,2.6270378,9.288305,-0.076358154,-0.03970624,0.03604105,-5.479,3.703,-35.148,1
-0.093373865,2.5486276,9.618706,-0.12583824,0.08399397,0.06566802,-5.479,3.703,-35.148,1
0.050876785,2.6539726,9.209895,0.028405234,-0.07849618,0.032070424,-5.177,3.703,-35.148,1
0.15203181,2.9712043,9.14226,0.0571159,-0.124005646,0.062308256,-5.177,3.398,-35.148,1
0.30107087,2.9430726,8.626907,0.09560041,-0.013439035,0.09987647,-5.177,3.398,-35.148,1
0.3298013,2.8455088,9.842564,-0.041233405,-0.18600847,-0.060170226,-5.502,3.085,-35.148,1
0.15263036,3.2573113,8.805874,0.2883284,-0.16126843,-0.043676864,-5.502,3.085,-35.148,1
0.48722005,3.0867245,9.123704,0.2098322,-0.08827003,-0.049480084,-5.502,2.403,-35.148,1
0.21428105,3.1914709,8.768166,-0.014966198,-0.03145956,0.040317107,-5.502,2.085,-35.148,1
0.27952304,3.5362358,9.241618,-0.028099801,-0.032986723,0.03390302,-5.812,1.776,-35.148,1
0.5955577,3.268684,8.990826,-0.14446963,-0.019547688,0.12308934,-5.812,1.776,-35.148,1
0.22744916,3.0334535,9.095572,-0.23182335,0.38148534,0.06963864,-5.812,1.776,-35.148,1
-0.43873745,2.8275523,8.616732,-0.15027285,0.18661933,-0.05100725,-5.126,2.111,-35.148,1
-0.12808979,2.6473885,9.519944,-0.07849618,-0.063224554,-0.063224554,-4.785,2.415,-35.148,1
0.25079262,2.4875755,9.64145,0.54183745,-0.20189096,-0.090713486,-4.42,2.415,-35.148,1
-0.025737667,2.4756045,9.928156,0.118507855,0.010079277,0.08368854,-4.42,2.415,-35.148,1
0.031124622,3.1872811,9.747394,0.56016344,0.16432275,0.008552114,-4.42,2.107,-35.148,1
-0.5141548,3.7271736,8.55987,0.63285637,0.50426924,0.28099802,-4.106,1.451,-35.148,1
-1.2743138,4.3783965,6.985682,0.505491,0.66156703,0.22724187,-3.079,0.256,-35.508,1
-1.673547,5.0403934,7.401076,0.30818152,0.087964594,-0.12522738,-2.284,-0.848,-35.813,1
-0.9528923,5.233725,7.833828,-0.098043874,-0.22388211,-0.29810223,-1.641,-1.875,-36.12,1
-0.6769605,4.727351,7.9206176,0.23793201,-0.22693644,-0.083383106,-1.641,-2.2,-36.12,1
-0.4177882,5.2852,7.0730705,0.5213735,-0.19608775,-0.13683382,-1.954,-2.2,-36.12,1
-0.89184016,4.7860093,8.434174,-0.08277224,-0.058948494,-0.11636983,-2.65,-2.818,-35.449,1
-1.115698,4.55856,7.9756846,0.16065755,-0.12980886,-0.08552113,-3.01,-3.486,-34.796,1
-0.87448215,5.474941,6.82946,0.080634214,-0.043676864,0.067500606,-3.315,-3.79,-34.796,1
0.009576807,5.525219,7.800309,-0.33841935,-0.10873401,0.032986723,-3.315,-4.103,-34.471,1
-1.0905589,4.458602,8.368932,-0.7819075,0.19364429,0.0693332,-3.315,-4.103,-34.471,1
-0.5434838,4.6004586,8.094197,0.17287487,-0.06536258,0.033292156,-3.315,-3.112,-34.471,1
-0.96546185,5.01286,7.383718,0.7089091,-0.1600467,0.047647487,-2.954,-2.742,-34.783,1
-0.5255273,5.925649,8.08462,-0.2593123,0.1386664,0.16218472,-2.954,-3.044,-34.783,1
-0.35314476,4.9224787,7.5974007,-0.31856623,-0.09162979,0.086132,-3.619,-3.427,-34.457,1
-0.4357447,4.5603557,8.574235,-0.8350528,0.28496864,0.37293324,-3.936,-3.427,-34.152,1
-0.2124854,4.2479124,8.311471,-0.35735616,-0.045814894,0.0888809,-3.936,-2.362,-34.504,1
-0.16879122,4.358644,8.198944,0.08552113,-0.019242255,0.12217305,-3.251,-1.289,-35.137,1
0.005985504,4.1784806,8.381501,0.26175576,-0.3436117,0.101098195,-3.251,-0.984,-35.137,1
0.10474633,4.1144357,8.524555,0.17012598,-0.21960606,-0.01740966,-3.617,-1.29,-35.137,1
0.008978256,4.221576,8.5538845,-0.051923547,-0.19272798,-0.043066,-3.932,-1.939,-34.826,1
0.44352585,4.353257,9.098565,-0.13805555,-0.03481932,-0.02565634,-4.611,-1.939,-34.51,1
0.3681085,4.271256,9.03452,0.03023783,0.18051068,-0.08155051,-4.93,-1.939,-34.51,1
-0.15023616,4.4723687,7.69257,0.33078352,0.113926366,-0.05100725,-4.93,-1.62,-34.51,1
0.017956512,4.7866077,7.9667063,0.17989981,-0.081855945,-0.010079277,-4.624,-1.965,-34.51,1
-0.1933318,4.7818193,8.250419,0.022602014,-0.038789943,0.040927973,-4.624,-2.314,-34.51,1
0.55246204,5.273828,8.058883,0.21380283,0.06780604,0.10720685,-4.624,-2.97,-34.51,1
-0.14784196,4.8698063,7.5590935,-0.011301007,0.20647246,0.07666359,-4.316,-2.97,-34.51,1
-0.034715924,3.9624038,8.239047,-0.7611381,-0.00580322,-0.016798794,-3.656,-2.97,-34.51,1
-0.19512744,3.863643,9.2547865,-0.6948592,0.27030787,0.043982297,-3.34,-2.12,-35.136,1
-0.19632454,3.9187095,9.100361,0.13897185,-0.14477506,-0.103847094,-3.34,-0.689,-35.136,1
-0.06943185,4.1515455,8.209119,0.1423316,-0.09437868,-0.0421497,-3.34,-0.367,-35.437,1
0.09756372,4.0695443,8.738237,0.06566802,-0.12461651,-0.0027488936,-3.34,-0.367,-35.437,1
-0.089184016,4.1276035,8.135497,0.10140363,0.09285152,0.041233405,-3.643,-0.688,-35.108,1
-0.20949265,4.216788,8.726267,0.06963864,0.11026118,-0.03023783,-3.643,-0.688,-35.108,1
-0.3238158,4.4059296,8.540117,0.14385876,0.038179077,0.028710667,-3.643,-1,-35.108,1
-0.21547815,4.519056,8.757391,0.2910773,0.05467244,0.017104227,-3.643,-1,-35.108,1
0.3633201,4.818331,9.109339,0.52564955,0.3109304,0.034513887,-3.294,-1.632,-35.108,1
-0.4333505,4.7141833,7.7823524,-0.18448131,-0.11178834,0.018936822,-3.294,-2.272,-35.108,1
0.06943185,3.9145198,9.459491,-0.8176431,-0.39828414,-0.20311269,-2.987,-2.272,-35.108,1
-0.2813187,4.264672,8.285135,0.16279559,-0.32498032,-0.17195857,-3.7,-1.499,-35.108,1
0.2813187,4.216788,8.604761,0.03940081,-0.19517145,-0.11148291,-4.37,-1.11,-34.791,1
-0.073023155,4.334702,8.2995,0.062308256,0.23273966,0.045814894,-4.37,-1.11,-34.791,1
0.3453636,4.836886,8.479664,0.29535335,0.22204952,0.059864793,-4.679,-1.11,-34.791,1
-0.6871359,4.2556934,7.891887,-0.3371976,0.19303341,-0.005497787,-4.679,-1.11,-34.791,1
0.31064767,4.140772,9.057265,-0.36193767,-0.17928895,-0.070249505,-4.679,-1.11,-34.791,1
0.12988544,4.253299,8.483853,0.26328292,-0.038179077,0.014966198,-4.367,-1.11,-34.791,1
-0.023942016,4.0144777,9.059659,0.01160644,-0.073303826,0.030848695,-4.696,-1.11,-34.791,1
-0.11492168,4.57113,8.161834,0.34330627,0.015882496,0.1563815,-4.696,-1.11,-34.791,1
-0.26755205,4.907515,7.9732904,0.38423425,0.13103059,0.08032878,-4.376,-1.449,-34.791,1
0.18495208,4.9877205,8.51857,-0.06872234,0.034208454,-0.08399397,-4.376,-1.8,-34.791,1
-0.27832595,4.685453,7.0820484,0.09193522,0.056199603,-0.19639318,-4.376,-2.114,-34.791,1
-0.39324763,4.654328,8.070255,-0.27091873,0.06505715,-0.005192355,-4.376,-2.42,-34.791,1
-0.3298013,4.5777135,8.019379,-0.094989546,-0.115453534,0.044593163,-3.684,-2.42,-34.791,1
-0.47524905,4.4753613,8.271368,-0.113926366,0.030848695,-0.02076942,-3.684,-2.42,-34.791,1
-0.094570965,4.414908,8.507795,-0.16279559,-0.076052725,-0.062002823,-3.684,-2.42,-34.791,1
-0.09935937,4.433463,8.202535,-0.064446285,-0.15241088,-0.050701816,-3.684,-2.117,-34.791,1
0.43514615,4.6495395,7.787141,-0.0009162979,-0.108123146,0.040317107,-3.684,-1.445,-34.791,1
-0.24480712,3.9228995,8.850765,-0.26450464,0.050701816,-0.01863139,-4.005,-1.445,-34.791,1
-0.27473465,4.2078094,8.11395,0.13744467,-0.1255328,-0.11453723,-4.327,-1.121,-34.791,1
-0.18794483,4.1132383,8.881291,-0.0729984,-0.105374254,-0.037873644,-4.652,-1.121,-34.791,1
-0.045489833,4.1742907,8.858546,-0.14996742,-0.07971791,0.1142318,-4.652,-1.121,-34.791,1
0.2136825,4.3406878,8.226477,0.0720821,-0.01282817,0.07880162,-4.995,-1.121,-34.791,1
0.047884032,4.224569,8.411429,0.10934488,-0.023823744,0.031154128,-5.332,-1.121,-34.49,1
0.34476504,4.383185,8.909423,-0.034208454,0.10293079,0.19150625,-5.332,-1.121,-34.49,1
-0.11133038,4.586692,8.541314,0.129198,0.23854288,0.2602286,-5.332,-1.121,-34.49,1
0.030526072,4.6363716,8.295909,0.23793201,0.34055737,0.03604105,-5.332,-1.121,-34.49,1
-0.25558102,4.7937903,7.9008656,0.28680122,0.1685988,-0.13408493,-3.726,-1.473,-34.49,1
-0.3465607,4.7381253,8.509591,0.023823744,-0.03970624,-0.022907447,-2.923,-2.18,-35.156,1
-0.23104046,4.718373,8.425196,-0.25503623,-0.20219639,-0.042760566,-2.923,-2.497,-35.458,1
0.1388637,4.378995,8.492233,-0.055588737,-0.53878313,-0.18478674,-3.262,-2.192,-35.458,1
0.25019407,4.672883,8.270171,0.3475823,-0.5858198,-0.31642818,-4.011,-2.192,-35.147,1
0.39983168,4.6166196,8.463503,0.27122417,-0.34116822,-0.13988814,-5.815,-2.192,-34.471,1
0.17417817,5.3103395,7.2059484,0.22296582,0.09254608,0.07819075,-6.158,-2.87,-34.164,1
0.17357962,4.7387238,8.843582,-0.40469822,0.064751714,0.036651913,-6.481,-3.192,-33.857,1
-0.10594343,4.4538136,8.339603,-0.1863139,0.22876903,0.05222898,-6.481,-2.874,-33.857,1
0.044292733,4.4460325,8.702923,-0.11728613,0.11575896,0.07513642,-6.175,-2.261,-33.857,1
-0.15741876,4.4897265,8.416816,-0.21135938,0.24862215,0.031154128,-5.824,-1.896,-34.181,1
-0.18794483,4.4807487,8.091205,0.21533,-0.023518313,-0.021991149,-5.824,-1.527,-34.181,1
0.004189853,4.596867,8.330625,0.03481932,-0.0421497,-0.03390302,-5.125,-1.527,-34.181,1
0.13227965,4.6178164,8.112753,0.25381452,-0.17195857,-0.0106901415,-5.125,-1.527,-34.181,1
0.014963761,4.435259,8.415619,-0.16829337,0.09712757,0.016798794,-5.125,-1.852,-34.181,1
-0.049679685,4.646547,8.392874,0.045814894,-0.01038471,0.003970624,-5.125,-1.852,-34.181,1
0.0017956513,4.466982,8.245032,0.0106901415,-0.050396383,-0.0580322,-5.427,-1.852,-34.181,1
0.11492168,4.284424,8.516175,-0.06536258,0.005192355,0.056199603,-5.752,-1.852,-34.181,1
0.25019407,4.494515,8.405443,0.08002335,0.029321533,0.073303826,-5.432,-1.852,-34.181,1
-0.005985504,4.569334,7.937377,0.09773844,0.106595986,0.03390302,-4.806,-1.852,-34.181,1
0.034715924,4.5154643,8.457518,-0.10293079,-0.06169739,-0.02107485,-4.806,-1.852,-34.181,1
0.12629414,4.5082817,8.508993,0.019547688,-0.01038471,0.027794369,-4.806,-1.852,-34.181,1
0.061650693,4.395156,8.2833395,-0.03634648,-0.013439035,-0.049480084,-4.806,-1.852,-34.181,1
0.15981296,4.4005427,8.42759,-0.13775012,-0.12797627,-0.07513642,-4.806,-1.852,-34.181,1
0.13108255,4.3089647,8.6712,0.011911872,-0.003970624,-0.0027488936,-4.806,-1.852,-34.492,1
0.25438392,4.546589,8.459911,-0.01985312,-0.004276057,-0.0076358155,-4.806,-1.852,-34.492,1
0.13227965,4.532822,8.489241,0.12461651,0.08032878,-0.004886922,-5.143,-1.519,-34.492,1
-0.14305355,4.409521,8.243237,-0.14477506,-0.11362094,-0.012217305,-5.86,-1.519,-34.492,1
0.037708677,4.5196543,7.9912467,0.1282817,0.03726278,0.022602014,-5.86,-1.519,-34.492,1
-0.10055647,4.4639893,8.052897,-0.042455133,-0.036651913,0.010995574,-5.86,-1.519,-34.176,1
0.10534488,4.421492,8.327632,-0.047647487,0.017104227,0.032070424,-5.522,-1.82,-34.176,1
0.020949265,4.540005,8.313866,-0.10629055,-0.026572637,0.0290161,-5.522,-1.82,-34.176,1
0.08559271,4.325125,8.437765,-0.008246681,-0.01282817,0.018936822,-5.522,-1.82,-34.176,1
0.15203181,4.5418005,8.350377,0.021991149,-0.0106901415,0.0036651916,-5.522,-1.82,-34.176,1
0.26156655,4.489128,8.480263,0.06963864,0.00030543262,-0.002443461,-5.522,-1.82,-34.176,1
0.050876785,4.4873323,7.903858,0.052839845,0.01160644,-0.008552114,-5.522,-1.82,-34.176,1
0.14065935,4.437054,8.498817,-0.08246681,-0.004886922,0.005192355,-5.522,-1.82,-34.176,1
0.19692309,4.4885297,8.327632,0.13164146,-0.064446285,0.012217305,-5.522,-2.125,-34.487,1
0.18914193,4.6016555,8.161235,0.00580322,0.005497787,0.01282817,-5.218,-2.125,-34.487,1
0.56323594,4.8057613,8.4234,0.2602286,-0.015271631,0.06780604,-5.522,-2.125,-34.184,1
-0.08200141,5.039196,8.890269,0.28038713,0.37048978,0.22540927,-5.522,-2.465,-34.184,1
0.050278235,5.3624134,7.3777328,0.4905248,0.2864958,0.14630222,-4.835,-3.471,-34.184,1
-0.16938977,5.273229,7.852383,0.14049901,0.25870144,-0.06261369,-4.216,-4.151,-34.184,1
-0.3537433,5.281609,7.9954367,0.08002335,-0.111177474,-0.052534413,-3.866,-4.475,-34.506,1
-0.48841715,5.349245,7.952341,-0.38423425,0.087659165,-0.0729984,-3.547,-4.475,-34.812,1
0.23044191,4.8548427,8.279149,0.0106901415,-0.6728681,-0.2648101,-3.234,-4.475,-34.812,1
0.3800795,5.0942626,7.0970125,0.24801129,-0.3323107,-0.10293079,-3.959,-4.15,-34.492,1
0.4213795,5.3103395,8.262989,-0.12095132,-0.048563786,0.05131268,-4.91,-4.15,-33.813,1
-0.24361002,4.8506527,7.843405,-0.30665436,0.013439035,0.02443461,-5.226,-4.15,-33.813,1
-0.090979666,4.510676,8.429984,-0.5357288,0.35246924,0.10140363,-5.226,-3.817,-33.813,1
-0.08259996,4.4340615,8.539519,-0.09437868,-0.10598512,-0.041233405,-4.917,-2.775,-34.127,1
-0.077213004,4.3658266,8.271967,-0.14477506,0.02107485,0.025961773,-4.917,-2.024,-34.472,1
0.3705027,4.6363716,8.846576,0.07574729,-0.12705997,-0.008857546,-4.917,-1.724,-34.472,1
-0.19512744,4.243124,8.326435,-0.14905111,-0.03145956,0.015271631,-4.917,-1.724,-34.472,1
-0.035314474,4.4807487,8.146272,0.040011674,-0.11362094,-0.061086524,-4.917,-1.724,-34.17,1
0.272939,4.6112323,8.199542,0.30818152,-0.33414328,-0.06688975,-4.917,-1.724,-34.17,1
-0.12629414,4.349067,8.082825,-0.0888809,0.18234327,0.0888809,-5.22,-2.027,-34.17,1
-0.09696517,4.5992613,8.639477,0.047036625,0.29779682,0.09743301,-5.92,-2.027,-34.17,1
-0.27114335,4.6525326,8.215105,-0.01740966,0.004581489,0.05100725,-5.92,-2.027,-34.17,1
-0.14065935,4.7267528,7.615357,0.038789943,0.067500606,0.074830994,-5.178,-2.027,-34.17,1
-0.11611878,4.644751,8.127118,-0.046120327,-0.0143553335,0.006414085,-4.827,-2.349,-34.17,1
-0.018555064,4.7004166,8.364742,-0.06963864,-0.008552114,0.008246681,-4.827,-2.349,-34.474,1
-0.0664391,4.650737,8.376115,0.055588737,0.0983493,0.010079277,-4.827,-2.349,-34.474,1
-0.18375498,4.687847,8.021174,0.044593163,-0.11362094,-0.022907447,-4.827,-2.349,-34.474,1
-0.0005985504,4.631583,8.603564,0.004581489,-0.15485434,-0.017715093,-4.521,-2.349,-34.474,1
0.15143326,4.994903,7.9744873,0.3268129,-0.27885997,-0.056505036,-4.895,-2.69,-34.474,1
0.42676646,5.1613,7.6135616,0.2657264,-0.2733622,-0.082161374,-5.209,-3.038,-34.127,1
0.37469256,5.2289367,7.9212165,0.10720685,-0.021991149,0.05131268,-5.209,-4.058,-33.821,1
0.33279404,5.183447,7.789535,0.036957346,0.09773844,0.07666359,-5.529,-4.379,-33.512,1
-0.20350714,5.189432,8.23366,-0.09315695,0.591623,0.1001819,-5.529,-4.379,-33.512,1
-0.61530983,5.158906,7.838018,0.12767084,0.408058,-0.005497787,-4.814,-4.379,-33.854,1
-0.52971715,5.2199583,7.275979,-0.046120327,-0.095294975,-0.058337633,-3.736,-4.379,-34.208,1
-0.19931729,5.118803,8.76996,-0.45448375,-0.18020524,0.018325957,-3.091,-4.379,-34.529,1
-0.47345337,5.021838,8.516175,0.119729586,-0.035430185,0.007330383,-3.091,-4.379,-34.829,1
-0.41958386,5.33907,7.4465656,0.4166101,0.21135938,-0.054061573,-3.091,-4.379,-34.829,1
-0.5315128,5.4085016,7.2670007,0.07391469,-0.08582657,0.021380283,-3.091,-4.379,-34.829,1
-0.6464345,5.0822916,8.710705,-0.54702985,-0.16829337,-0.03481932,-3.091,-4.718,-34.829,1
-0.25198972,3.0723593,7.9182234,-0.022602014,-0.14660765,0.5842926,-0.109,-9.684,-37.136,1
1.5185224,2.0284874,11.44608,-0.01740966,0.009773844,0.5216789,2.09,-8.422,-36.114,1
1.407192,3.4392707,6.7486563,1.0280862,0.1469131,0.18234327,3.797,-8.422,-34.974,1
0.6572084,4.39755,8.095394,0.36651915,0.42149702,0.23335053,3.623,-9.979,-35.028,1
2.344522,5.45878,9.475652,0.44715336,0.4007276,0.36865717,4.408,-11.076,-34.344,1
0.004189853,3.8606503,7.6081743,0.8356637,0.07819075,0.00030543262,5.09,-12.162,-33.695,1
-0.16340427,5.0451818,7.7488337,0.505491,0.3173445,0.44684792,5.473,-14.776,-33.073,1
-0.79726917,5.3037553,7.28795,0.18203785,0.6062838,0.5858198,5.801,-15.472,-32.365,1
0.19991584,4.1659107,10.9660425,-0.2660318,-0.20677789,0.64721173,6.123,-16.421,-31.991,1
-0.74519527,5.7484784,6.160281,0.2565634,0.09468412,0.1957823,6.123,-17.198,-31.666,1
-1.2204443,4.0120835,7.72968,0.09682214,0.24801129,0.35216382,5.812,-17.861,-31.666,1
-0.22325931,5.965752,6.9988503,0.5714644,0.3371976,0.42760566,5.812,-18.215,-31.332,1
-0.41000703,5.2259436,8.370728,0.96486163,0.023823744,0.17837265,6.153,-19.915,-30.691,1
-0.30526072,6.3943143,5.6820393,1.1710287,0.014049901,0.6151413,6.153,-23.774,-28.683,1
1.3192052,7.0329676,5.067328,0.39553526,-0.15363261,0.47433686,5.778,-24.951,-26.521,1
1.2707225,6.0681043,7.277176,-0.3924809,0.13805555,0.13652839,5.096,-25.563,-26.211,1
0.89782566,6.179435,7.203554,-0.57787853,0.6401868,-0.025961773,4.788,-25.898,-25.831,1
-0.3333926,5.531803,6.9467764,-0.11911872,0.35277468,-0.19700404,5.133,-25.543,-26.567,1
0.5662287,6.9485717,5.2678423,0.19792034,-0.031154128,-0.010995574,5.833,-25.163,-27.265,1
1.5676036,7.111976,6.4469867,0.17348573,0.07452556,0.22602014,6.53,-25.163,-27.593,1
0.8170213,6.988076,8.024167,-0.11453723,0.09040806,0.011301007,6.53,-25.163,-27.593,1
0.09756372,7.639299,8.447941,-0.50518554,0.036651913,0.08979719,6.53,-25.163,-27.593,1
-2.3409307,5.675455,6.873753,0.20372356,0.30634892,-0.059864793,7.223,-25.163,-28.305,1
-1.1150994,4.96318,6.2763996,-0.05222898,0.103847094,0.070249505,7.543,-25.163,-28.623,1
-0.40880993,6.2105594,5.5389857,0.07086037,0.16401732,0.35430184,7.849,-25.486,-28.984,1
0.04129998,6.417059,6.143522,0.12186762,-0.18906279,0.17745635,7.849,-25.834,-28.984,1
0.35254622,7.3112936,6.305729,0.14721853,-0.26847526,-0.095294975,7.165,-26.161,-28.984,1
-3.6703112,6.2500634,6.1112,-0.18417588,0.076358154,-1.3014483,6.858,-26.513,-28.669,1
0.7368156,5.12838,7.1909847,-0.44837508,0.19242255,-0.5751296,8.016,-26.513,-29.342,1
1.0205284,6.8587894,7.192182,-0.9682214,0.86406887,0.54702985,9.669,-24.975,-30.819,1
0.92057055,4.551976,7.97748,-0.008857546,-0.42332962,-0.20433442,10.716,-23.506,-31.993,1
0.02932897,5.731719,6.6510925,0.5235115,-0.42394048,-0.38148534,10.716,-22.795,-33.2,1
0.4890157,6.607398,7.165247,0.2434298,0.08093964,-0.079107046,10.716,-22.795,-33.503,1
-0.16998832,7.543531,7.3112936,1.1511755,0.09987647,0.17623462,10.716,-23.107,-33.132,1
-2.2703018,7.019201,3.7110126,0.806953,0.04184427,0.054061573,10.388,-24.896,-30.862,1
-1.06123,6.795343,5.7664347,-0.38148534,0.2932153,0.6404922,9.994,-25.956,-30.491,1
-0.7128736,5.0523643,7.872135,-0.72051555,0.069027774,0.19517145,9.686,-26.255,-30.165,1
-0.0017956513,6.5068417,6.3224883,-0.07513642,0.05497787,0.27947086,9.375,-25.894,-31.329,1
-0.62129533,6.1261635,7.098808,0.060170226,0.028710667,0.038789943,9.065,-25.146,-32.055,1
-0.82779527,6.6403184,7.934983,0.35277468,-0.1459968,-0.017715093,8.734,-24.819,-32.356,1
0.82121116,7.191583,5.9873,0.3930918,-0.1386664,0.19058995,8.055,-24.819,-32.356,1
2.1200657,5.183447,9.391256,-0.94134337,0.06963864,0.16890424,8.055,-25.123,-32.041,1
0.62847793,6.5966244,4.572925,0.75502944,-0.22693644,-0.25259277,7.405,-25.123,-32.373,1
0.8415619,6.0244102,6.508039,-0.59528816,-0.04886922,-0.4978552,7.405,-24.813,-33.018,1
-0.005985504,6.6325374,6.114791,-0.27275133,-0.16829337,-0.21899518,8.049,-24.142,-33.337,1
0.26396075,7.728483,7.004237,-0.26175576,-0.0870483,0.09682214,8.432,-23.429,-34.065,1
0.38486794,7.1820064,9.934141,-0.34025195,0.22876903,0.08277224,8.432,-22.024,-34.736,1
-0.4249708,4.775235,9.934141,-0.37751472,0.12675454,-0.4605924,8.432,-20.626,-35.412,1
-1.6250644,6.019622,4.4418426,0.08246681,0.4175264,0.18997909,10.032,-19.892,-35.731,1
-0.5201403,4.0677485,9.391854,-0.014660766,0.1441642,0.6469063,10.668,-18.487,-36.691,1
-0.6715736,4.7135844,7.001843,0.5919284,0.1554652,0.38362336,10.668,-18.176,-37.037,1
-0.5117606,5.9370217,6.1530986,0.38087448,0.24556783,0.13225232,10.363,-19.589,-37.356,1
-0.80086046,5.7257333,7.697957,0.3136793,-0.0421497,-0.1600467,10.363,-20.309,-36.283,1
0.6440403,6.655881,6.0118403,0.42271876,-0.12950343,-0.42149702,10.363,-21.324,-35.601,1
1.1408371,7.281366,6.2859764,0.16829337,0.35094208,-0.13347405,10.363,-21.655,-35.601,1
0.35314476,5.813122,8.893262,-0.23151793,-0.027183503,-0.08368854,11.026,-21.35,-35.601,1
-0.8086416,6.033388,6.4182563,0.5323691,0.0070249503,-0.38728857,11.332,-20.651,-35.601,1
-0.7428011,7.1065893,5.0571527,0.50885075,-0.027794369,0.049480084,11.688,-20.651,-35.601,1
0.18734628,7.85358,6.149507,0.13652839,-0.015271631,0.2003638,11.688,-21.745,-34.893,1
-1.127669,8.016386,6.075287,-0.2415972,0.39553526,-0.06078109,11.688,-22.467,-34.57,1
-3.0639796,6.069301,6.6905966,0.1432479,0.49632803,0.32375857,12.023,-22.467,-34.57,1
-2.5384524,5.3624134,6.545149,-0.16646078,0.08674286,0.1957823,12.379,-22.166,-34.57,1
-0.5793968,6.857592,5.093664,-0.25381452,0.39706242,0.5580254,12.707,-22.166,-34.875,1
-0.31483752,7.5507135,5.5168395,-0.03390302,0.033292156,0.3631594,12.373,-22.166,-34.875,1
-0.62847793,7.08983,7.4124484,0.033292156,-0.21227567,0.09254608,12.373,-22.166,-34.875,1
-1.4449008,7.1969705,6.220136,0.1518,-0.11636983,-0.119729586,11.672,-22.166,-35.176,1
1.6310499,7.5333557,6.3500214,-0.30268374,-0.15851954,0.05009095,11.672,-22.166,-35.485,1
-0.49440265,6.0681043,7.1395097,-0.28619036,-0.07269296,-0.080634214,11.349,-21.812,-35.85,1
0.46208093,6.9078703,6.377555,-0.18875736,-0.23823744,-0.07544186,11.349,-20.736,-36.46,1
-1.1252748,5.771223,6.117784,-0.046731193,-0.1255328,-0.4456262,10.639,-19.66,-37.173,1
-0.31184477,6.6786256,5.2863975,0.22235495,-0.27550024,-0.0106901415,10.308,-18.962,-37.477,1
0.30047232,7.569867,6.927623,-0.22602014,-0.18570304,0.37323865,9.98,-18.962,-37.477,1
1.7818847,8.711303,7.8050976,0.18600847,0.1133155,0.74220127,9.648,-18.962,-37.785,1
-0.20410569,6.4260373,7.0132155,-0.05009095,0.602924,0.07788532,9.648,-19.63,-37.785,1
-2.7844565,4.748899,7.1706343,-0.16584991,0.62125,0.37965274,9.973,-19.989,-37.785,1
-0.25258827,6.1112,7.0742674,-0.12370021,0.56169057,0.86467975,10.733,-19.989,-37.451,1
-1.8752584,4.51726,8.163031,-0.20525073,0.6065892,0.37140608,11.035,-19.989,-37.451,1
-1.8429368,5.1182046,7.0904284,-0.021991149,0.56230146,0.70616025,11.338,-20.324,-37.145,1
-1.8866309,5.8628016,8.268375,-0.025350908,0.6713409,0.6575964,11.338,-20.648,-36.814,1
-0.362123,5.7808,7.0634937,-0.07086037,0.8405506,0.9230174,11.338,-21.385,-35.794,1
0.75477207,5.533599,7.2298903,-0.021380283,0.38331795,0.8695667,11.338,-22.035,-35.182,1
1.2180501,5.583278,8.081029,-0.18570304,0.45020768,0.66645396,11.027,-22.416,-34.828,1
0.6374562,5.468955,7.599196,-0.13744467,0.50885075,0.52748215,10.722,-22.717,-34.497,1
1.009156,4.9613843,7.889493,-0.23182335,0.3115413,0.4156938,10.394,-22.717,-34.497,1
1.1761516,5.2385135,8.245032,-0.26175576,0.17654006,0.26175576,10.049,-22.407,-34.497,1
1.1456255,5.2486887,7.8487916,-0.052534413,0.14019357,0.2678644,9.736,-22.088,-34.497,1
1.0043676,5.5264163,7.7799582,-0.014049901,0.269697,0.23732115,9.432,-22.088,-34.497,1
1.8477252,5.5521536,8.3312235,0.106901415,0.38545597,0.23793201,9.432,-22.088,-34.173,1
0.9660604,6.0483522,6.9647326,0.17715092,0.5705481,0.06047566,9.767,-22.088,-33.802,1
1.0085574,6.007651,8.149264,0.07422013,0.43982297,0.28619036,10.455,-22.088,-33.499,1
-0.17357962,6.64391,5.6203885,0.4783075,0.398895,0.27885997,10.818,-22.767,-32.786,1
-1.4820108,5.3247046,6.517017,-0.019547688,0.074830994,0.070554934,11.163,-23.468,-32.092,1
-0.8002619,5.149329,7.3448124,-0.52748215,0.31398472,0.19364429,11.163,-23.803,-31.761,1
-0.89782566,6.791153,7.1341224,-0.4615087,0.17623462,0.20433442,11.163,-23.803,-31.448,1
-2.100912,5.0140567,9.802461,-0.5558874,0.22113322,0.14446963,11.163,-23.072,-31.748,1
-1.5394717,5.3486466,6.962937,0.12767084,0.20616703,0.41691554,11.163,-22.193,-32.403,1
-0.6817489,5.659893,7.3448124,-0.067500606,0.10415252,0.48716503,10.823,-21.856,-32.403,1
-0.4381389,5.815516,7.778163,-0.08002335,0.10170906,0.37812558,10.179,-21.856,-32.723,1
0.7062895,5.8598084,8.579023,-0.04917465,-0.07941248,0.12461651,9.846,-22.16,-32.723,1
2.1015105,4.96737,7.719505,0.07696902,-0.31856623,-0.31673363,9.486,-22.16,-32.723,1
2.60968,5.6425347,5.852626,0.17684549,-0.28588495,-0.58001655,9.175,-22.16,-32.414,1
2.813187,4.657321,8.288128,-0.5897904,-0.5225952,-0.7706065,9.175,-21.74,-32.414,1
2.0392613,4.477157,8.470087,-0.17073683,-0.66339964,-0.9443977,9.175,-19.34,-33.023,1
2.7114334,5.2648497,8.119336,-0.034513887,-0.63285637,-0.9297369,9.175,-18.53,-33.724,1
2.2744915,4.945224,7.917625,-0.038789943,-0.569021,-1.097114,9.175,-17.056,-34.815,1
1.910573,4.936844,7.9792757,0.09621128,-0.61819565,-1.1743884,9.175,-15.879,-35.208,1
1.8166006,5.0571527,7.6129627,0.0888809,-0.56107974,-1.1230757,9.175,-15.104,-35.922,1
1.7106571,5.315128,8.276755,0.18600847,-0.5012149,-1.0506883,9.48,-14.411,-36.604,1
0.2765303,6.419453,7.771579,0.08857546,-0.3753767,-0.88270026,9.791,-14.07,-36.926,1
0.27234045,5.16968,9.426571,-0.56046885,-0.6936375,-0.8866709,10.119,-14.07,-37.268,1
-1.6190789,4.3957543,7.587824,0.09315695,-0.7443393,-0.8775079,10.119,-13.764,-37.988,1
-2.078167,4.051588,7.0491285,0.105374254,-0.8026769,-0.6414085,10.119,-13.41,-38.719,1
0.23822308,5.187038,8.379107,-0.30726522,-0.43035457,-0.58001655,9.455,-13.09,-39.431,1
-1.0552444,4.8428717,7.657854,-0.21166481,-0.34208453,-0.77671516,8.773,-12.747,-40.446,1
-1.4293385,4.8733974,8.025364,-0.15424347,-0.30634892,-0.6924158,8.407,-11.624,-41.117,1
-1.0989386,5.321113,7.9786773,-0.048563786,-0.37018433,-0.4269948,8.07,-10.955,-41.767,1
-0.5710171,6.285378,7.5333557,0.25289822,-0.5439755,-0.26145032,8.07,-10.649,-42.098,1
-1.0965444,5.517438,7.6728177,0.14630222,-0.4905248,-0.57818395,7.281,-10.649,-42.098,1
-0.013766659,6.254852,7.117962,0.12339478,-0.5149594,-0.22540927,6.561,-11.354,-42.413,1
2.9125464,4.2904096,10.4883995,-0.4831944,-0.8552113,-0.04795292,5.215,-11.714,-42.413,1
1.1923125,4.396951,5.7365074,1.0128145,-0.54825157,-0.29779682,3.829,-11.714,-42.413,1
1.965041,4.609437,7.9272017,-0.6450737,-0.0036651916,-0.3662137,2.593,-12.043,-42.097,1
0.81642276,5.146935,6.5666966,-0.10598512,-0.12156218,-0.5384777,1.922,-12.043,-42.097,1
1.5101427,5.8747725,7.5495167,-0.13072516,-0.19150625,-0.37659842,1.922,-12.043,-42.097,1
0.28491,5.181651,8.754398,-0.16462818,0.16646078,-0.32925636,1.922,-11.717,-42.097,1
0.35194764,6.2913637,8.938752,0.24190263,0.21105394,0.23090707,2.577,-11.717,-42.097,1
-0.04249708,6.2327056,6.7743936,0.5329799,-0.05375614,0.099265605,2.92,-12.083,-42.097,1
-1.4933833,5.0960584,6.915053,0.28038713,0.6038403,0.37507126,3.247,-13.229,-41.789,1
-1.3569138,4.419098,6.6367273,-0.441961,0.1441642,0.29168814,3.247,-14.239,-41.152,1
0.62608373,4.332308,8.516774,-0.41172317,0.29535335,0.6951646,3.247,-14.239,-40.838,1
0.19033903,5.270835,7.137714,-0.074830994,0.0036651916,0.4175264,3.247,-13.934,-40.838,1
0.79726917,5.2522798,9.051279,-0.08827003,0.13133603,0.41080686,3.247,-13.56,-40.838,1
0.12629414,6.1716533,8.438364,0.36193767,-0.24190263,0.10751228,2.929,-13.56,-40.838,1
2.7814639,6.1638722,8.247426,0.49602258,-0.35277468,0.16157386,1.837,-13.56,-40.188,1
2.8921957,4.9494133,7.354389,0.27091873,-0.1386664,-0.03268129,0.765,-14.53,-39.579,1
2.328361,4.371214,7.2245035,-0.07819075,0.00030543262,-0.16249016,0.456,-15.174,-38.865,1
1.3958195,5.0996494,5.8801594,0.11484267,-0.087659165,-0.5564982,0.151,-15.85,-38.542,1
0.8379706,5.7784057,7.031172,-0.23579398,0.10354166,-0.52015173,0.151,-15.85,-37.858,1
1.83336,6.613384,8.055291,0.11484267,-0.03726278,-0.08979719,0.529,-15.85,-37.858,1
0.83497787,6.165668,9.016563,0.15149458,0.1826487,-0.1600467,1.559,-16.194,-37.544,1
-0.54288524,5.915474,7.65546,-0.046120327,0.26358834,-0.17134771,2.264,-16.526,-37.544,1
-1.1324574,5.8562174,5.9477954,0.5119051,0.16462818,0.21868975,2.604,-16.844,-36.883,1
0.05805939,4.484938,8.890868,-0.45265114,-0.34666604,0.036957346,2.922,-16.844,-36.511,1
0.7613561,5.510854,6.199785,0.040927973,0.21319197,0.35246924,2.621,-16.844,-36.166,1
-0.23523031,5.604826,6.5241995,0.04886922,0.061391957,0.258396,2.304,-16.844,-36.166,1
0.99778354,7.102998,6.1046157,0.28924468,-0.060170226,0.25137106,1.985,-16.844,-36.166,1
0.5081693,6.403891,8.69993,-0.3417791,0.076358154,-0.25350907,1.625,-16.844,-35.858,1
2.4007857,3.9683893,11.516708,-0.95203346,-0.34147367,-0.33292156,1.625,-16.496,-35.858,1
2.124854,5.8544216,7.282563,0.49632803,-0.54641896,-0.2003638,1.625,-15.379,-35.858,1
0.81761986,5.816713,6.013636,0.24801129,-0.19303341,-0.43310347,1.625,-15.031,-36.174,1
0.6781576,5.1726727,6.250662,-0.12522738,-0.13683382,-0.5317582,0.88,-14.695,-36.174,1
0.91937345,6.554127,6.3350577,0.05375614,-0.26847526,-0.11301007,0.561,-14.39,-35.852,1
0.41479546,6.4469867,8.462905,-0.15515977,0.0580322,-0.06047566,0.92,-14.39,-35.534,1
-0.5351041,7.6045833,7.264008,0.18417588,0.43066,0.024740042,1.969,-14.39,-35.534,1
-1.6400281,4.702811,7.487866,0.1469131,0.5891795,0.26267207,2.299,-13.682,-35.862,1
-0.9983821,4.395156,7.0126166,-0.50701815,0.17989981,0.25778514,3.025,-13.381,-35.862,1
1.1127052,4.8739963,8.187572,-0.16798794,0.1881465,0.57787853,3.703,-13.381,-35.862,1
0.06823475,5.681441,5.8628016,0.20708331,0.122783914,0.2770274,3.703,-12.762,-35.862,1
0.3298013,6.0567317,7.223905,-0.105374254,0.04428773,0.19486602,3.703,-12.443,-35.862,1
-0.31483752,4.736928,9.847352,-0.33108896,-0.16249016,-0.33108896,3.703,-12.126,-35.862,1
2.1871033,5.21517,8.717288,0.07238753,-0.6618725,-0.03848451,3.703,-11.48,-35.862,1
2.054225,5.522825,6.2261214,0.38087448,-0.26389378,-0.14844026,3.343,-11.48,-35.562,1
1.2497733,4.7297454,8.104373,-0.40042216,0.22235495,-0.27580565,2.67,-11.48,-35.562,1
-0.032920275,4.8482585,6.035184,0.046120327,0.19242255,-0.59742624,2.67,-10.742,-35.562,1
-0.35194764,5.233725,7.433996,-0.679893,0.80909103,-0.12736541,3.427,-9.994,-35.562,1
-0.29029694,5.245696,9.697116,0.35308012,-0.25350907,0.016798794,4.632,-9.336,-35.562,1
-0.15801731,7.0102224,7.6865845,0.51007247,0.20463985,0.2864958,5.319,-8.981,-35.562,1
-1.6292542,3.4506433,9.343372,0.047647487,-0.086437434,0.12980886,5.319,-8.981,-35.227,1
-1.2952632,5.910087,4.6046486,0.2779437,0.10903945,0.36774087,5.009,-9.667,-34.899,1
-0.61530983,3.6804867,8.322245,-0.38637227,0.43310347,0.6310238,5.009,-10.008,-34.579,1
-0.30286652,5.2277393,6.8719573,0.112399206,0.1777618,0.5534439,5.009,-10.322,-34.579,1
-0.08080431,5.743091,7.7877398,0.09682214,0.14813483,0.3707952,5.009,-10.322,-34.277,1
-0.35254622,6.3601966,7.8865004,0.33444872,-0.013133603,0.13041973,5.009,-10.671,-33.918,1
1.4502877,6.459556,7.875128,0.24984388,-0.33841935,0.18020524,4.702,-10.977,-33.595,1
2.1045034,4.594473,8.065467,0.16035213,-0.020158553,-0.016493361,3.446,-11.28,-33.288,1
1.2324153,4.537012,7.0461354,-0.15210545,-0.31795537,-0.4370741,2.659,-11.28,-32.65,1
1.441908,5.7095723,7.6093717,-0.13744467,0.04795292,-0.66339964,2.349,-11.28,-32.337,1
-0.5434838,6.1387334,5.93762,-0.0143553335,0.57604593,-0.7489208,3.422,-11.28,-32.337,1
-0.92176765,5.187038,8.318055,-0.14172074,0.03848451,-0.11148291,4.951,-10.943,-32.337,1
0.47644615,6.242881,9.251195,0.3839288,0.03756821,0.26358834,5.734,-10.943,-31.986,1
-1.252766,5.346851,7.8092875,-0.04917465,0.2443461,0.04428773,6.358,-10.943,-31.645,1
-1.9883845,5.9124813,5.521029,0.569021,0.38881573,0.40683624,6.358,-11.27,-31.315,1
-0.34955344,4.119224,8.273164,-0.24098633,-0.1685988,0.40530908,6.683,-11.897,-30.657,1
0.3172317,5.295376,7.067085,-0.04917465,0.25137106,0.50701815,6.683,-11.897,-30.657,1
-0.80325466,5.6999955,7.025785,0.04520403,-0.053145275,0.30115658,6.022,-12.225,-30.343,1
0.027533319,6.395511,8.909423,-0.12003502,0.2443461,0.061086524,5.676,-12.225,-29.985,1
-0.25797522,7.4645224,6.439804,0.2611449,0.050701816,-0.0021380284,5.676,-12.948,-29.67,1
2.2068555,4.5914803,9.611523,-0.48380527,-0.4578435,0.025045475,5.676,-13.252,-29.328,1
1.4460979,4.983531,6.8210807,0.22510384,-0.2773328,-0.3885103,5.676,-13.252,-29.013,1
0.8026561,5.3755813,6.589442,0.03023783,-0.0571159,-0.30573806,5.676,-13.252,-29.013,1
-0.6135142,5.2720323,6.8043213,0.028099801,-0.032375857,-0.59315014,5.676,-13.252,-29.013,1
0.65421563,6.7851677,7.345411,0.1554652,-0.13194689,-0.13652839,6.004,-13.252,-28.683,1
0.20051439,7.256227,7.331644,0.2843578,-0.1600467,-0.23182335,6.34,-13.252,-28.314,1
-1.9740193,7.431602,9.207501,0.051923547,0.4474588,-0.38148534,6.684,-13.562,-27.659,1
-1.1348516,3.9797618,8.980651,-0.0106901415,0.2782491,0.19211712,7.389,-13.562,-26.93,1
-2.3451207,5.659893,2.1769278,0.7858781,0.28069258,0.28588495,7.745,-13.89,-26.185,1
0.39085343,5.241506,7.383718,-0.84696466,0.10995574,0.6533204,7.745,-14.53,-25.524,1
-0.09756372,5.9465985,7.0036387,-0.14355333,-0.10170906,0.24648413,7.379,-14.848,-25.524,1
-0.53809685,6.344036,7.4711065,-0.10140363,-0.05222898,0.27305678,7.051,-14.848,-25.903,1
-0.9744401,6.884527,7.6027875,0.3998113,-0.18753563,0.26328292,6.7,-15.159,-25.903,1
0.24660277,8.623915,6.1704564,0.35521814,0.04153884,0.23060162,6.03,-16.348,-25.903,1
2.5611973,4.5136685,10.037092,-0.7797695,0.20097467,0.19608775,5.691,-17.054,-25.596,1
1.4251486,5.34326,4.7261543,0.8219192,-0.38026363,-0.28496864,4.972,-17.366,-25.596,1
2.2882583,6.2315083,7.406463,-0.7602218,0.2275473,-0.20250183,4.322,-17.366,-25.596,1
0.19572599,5.7215433,5.9124813,0.106901415,-0.06414085,-0.4529566,4.322,-17.366,-25.909,1
0.11611878,6.531382,5.817312,0.0012217305,0.011911872,-0.1337795,4.322,-17.028,-26.268,1
0.7146692,6.9006877,7.760206,-0.2501493,0.13164146,0.22388211,4.634,-16.69,-26.268,1
-0.22325931,7.754221,7.3286514,0.204029,0.26358834,-0.08399397,4.306,-16.366,-26.574,1
-0.032920275,4.4077253,9.48882,-0.5458081,0.21533,-0.06688975,3.999,-15.989,-26.574,1
-1.8680758,5.8466406,4.311359,1.1276573,-0.35063666,0.18845193,4.302,-15.676,-26.924,1
0.3890578,4.671686,8.641871,-0.81153446,0.00030543262,0.19211712,4.302,-15.676,-27.256,1
-0.06584055,5.53719,7.1927805,-0.24373524,0.061086524,0.17012598,4.302,-15.676,-27.256,1
0.16998832,6.0597243,6.8204823,-0.04734206,-0.13652839,0.19058995,3.654,-15.35,-27.989,1
-0.0005985504,6.202778,7.788338,-0.0018325958,-0.09896017,0.019547688,3.306,-15.039,-28.34,1
0.19153613,6.50744,7.6387005,0.057726767,-0.18997909,0.052534413,3.005,-15.039,-28.659,1
1.4359225,6.615778,8.465299,-0.44959682,-0.4370741,0.04917465,2.363,-15.039,-28.659,1
1.5945383,5.1170077,7.9942393,0.40683624,-0.19914207,0.010995574,1.997,-15.039,-29.31,1
1.0941502,4.721366,6.8545995,-0.25473082,-0.070249505,-0.30604348,0.904,-15.039,-29.611,1
1.1617863,5.068525,7.297527,-0.17867808,0.12461651,-0.28619036,0.904,-15.039,-30.287,1
1.7238252,6.205771,6.3470287,-0.01160644,-0.0125227375,0.1001819,0.904,-15.039,-30.615,1
1.4496891,6.1411276,7.4974427,0.1337795,0.016187929,-0.08277224,1.208,-15.039,-31.285,1
1.2737153,6.543353,7.6225395,0.07452556,0.16768251,-0.03940081,1.208,-15.039,-31.616,1
0.7332243,7.6351094,7.129334,0.0290161,0.22968534,-0.004886922,0.889,-15.039,-31.616,1
-1.2485762,3.277662,9.605537,-0.2611449,0.24862215,-0.10567969,0.889,-15.039,-31.98,1
-0.82779527,4.5902834,6.211158,0.23609942,-0.23426682,0.24465153,0.889,-15.039,-32.286,1
1.0061632,4.9907136,7.8062944,-0.3378085,0.16829337,0.5858198,0.584,-14.72,-32.951,1
0.427365,5.8203044,5.743091,0.1301143,-0.17623462,0.355829,-0.148,-14.381,-33.274,1
1.3958195,5.257667,7.5884223,-0.23151793,-0.21746802,0.27183503,-0.885,-13.389,-33.992,1
1.8459295,5.8508306,7.992444,0.18570304,-0.37934732,0.08246681,-2.178,-12.744,-34.324,1
1.9602526,7.4746976,8.13849,0.1255328,-0.35094208,-0.05589417,-3.294,-12.428,-34.625,1
3.1292217,4.3400893,9.532514,-0.42455134,-0.3286455,-0.33261612,-3.648,-12.428,-34.625,1
2.906561,4.892551,5.463568,0.58184916,-0.40133846,-0.52503866,-3.648,-12.428,-34.625,1
1.3461399,4.540005,7.2310877,-0.61391956,0.10293079,-0.41141775,-3.648,-12.428,-34.625,1
