ax,ay,az,gx,gy,gz,mx,my,mz,user
0.943914,3.0442274,7.313688,1.0968086,0.20250183,-0.95203346,3.245,-7.42,-17.318,1
0.56323594,3.7020345,6.8863225,-0.040011674,-0.15424347,-0.39858958,5.683,-5.943,-15.431,1
0.80086046,3.2399535,8.018182,-0.2302962,-0.14630222,-0.28038713,6.64,-4.844,-14.555,1
0.36272156,4.0019083,7.691373,-0.1459968,0.3481932,0.11759156,6.239,-5.3,-13.729,1
-0.053869538,4.176685,8.300098,-0.09743301,0.43279803,0.27000242,6.924,-4.931,-13.41,1
0.16160862,4.1216183,8.443152,0.13683382,0.1957823,0.41325033,7.563,-4.931,-13.081,1
0.86370826,4.4184995,7.945757,0.54275376,0.021685716,0.6114761,8.518,-5.314,-12.773,1
1.0642227,5.3276973,7.9822683,0.5983425,0.24281894,0.462425,8.839,-6.86,-12.469,1
0.40641573,4.4059296,9.177573,-0.21227567,0.40958515,0.5103779,9.159,-8.189,-12.158,1
0.93134445,3.9234982,6.935404,0.3145956,-0.26816985,0.30482176,9.159,-9.637,-12.158,1
-0.60453594,3.8337154,7.255628,0.344528,0.15454891,-0.04642576,9.159,-10.479,-12.158,1
-0.272939,4.4382515,6.947375,0.33841935,-0.09010262,0.35643986,9.159,-11.645,-11.453,1
0.08379706,4.5860934,7.5405383,-0.112399206,-0.14630222,-0.09560041,9.159,-12.432,-11.131,1
0.22505496,5.713164,5.795764,0.4801401,0.14477506,-0.022602014,8.845,-13.099,-10.813,1
0.027533319,5.9531827,6.7851677,-0.004581489,0.2959642,-0.13439035,8.845,-13.761,-10.813,1
-0.17657238,6.023213,6.6642604,0.00580322,0.051618114,-0.18967366,9.175,-14.094,-10.501,1
-0.33159694,6.1704564,6.3823433,0.09254608,-0.22785273,-0.025961773,9.494,-14.419,-10.501,1
0.59615624,6.688801,7.069479,0.24740042,-0.321926,0.20189096,9.494,-14.743,-10.501,1
0.40581718,6.9743094,7.2059484,0.52595496,-0.6536258,0.05009095,8.781,-15.382,-10.501,1
1.2192472,7.041347,7.049727,0.20738874,-0.32345316,0.22235495,8.033,-16.625,-10.501,1
0.98102415,5.3725886,6.5936313,-0.10567969,-0.67164636,-0.055588737,7.307,-17.35,-10.501,1
1.7040731,5.0092683,6.791153,0.027794369,-0.21655174,-0.083383106,6.216,-18.037,-10.144,1
1.5394717,5.439626,6.1596823,0.34666604,0.08552113,-0.31306845,5.88,-18.371,-10.144,1
1.049259,5.9519854,6.697779,-0.4129449,0.2144137,-0.017715093,5.88,-18.711,-10.144,1
1.5658079,5.7347116,6.6504936,-0.18387043,-0.019547688,0.1255328,6.213,-18.711,-10.144,1
1.1869255,5.943007,6.197391,-0.09987647,0.4129449,0.015577064,6.526,-18.711,-10.453,1
0.8948329,5.843049,7.2245035,-0.090713486,0.93676186,0.15515977,6.84,-18.711,-10.453,1
0.9271546,6.569091,6.180033,0.1459968,0.70738196,0.18081611,7.557,-18.711,-10.115,1
0.6901286,6.293758,7.2544312,-0.13805555,0.38331795,0.16157386,8.328,-19.337,-9.814,1
0.7026982,6.839037,6.823475,0.44623706,0.22602014,0.21746802,8.628,-19.654,-9.474,1
0.055066638,5.6706667,7.784148,-0.6450737,0.2565634,0.5522222,8.628,-20.013,-9.138,1
1.0899603,5.195418,6.7145386,0.12156218,-0.26908615,0.24129178,8.628,-20.326,-9.138,1
-1.6214731,5.125387,6.4936733,0.27885997,0.3210097,-0.11636983,7.984,-20.677,-9.138,1
-0.97384155,5.3863554,7.273585,-0.42577308,0.093767814,0.11575896,7.673,-20.985,-9.138,1
-0.66858083,5.3618145,6.0968347,-0.028405234,0.1695151,-0.14477506,7.673,-21.292,-9.138,1
-0.6183026,6.1626754,5.4102974,-0.074830994,0.34483343,-0.06872234,7.673,-21.292,-9.138,1
-0.9876082,5.249287,7.401076,-0.93492925,0.34972036,0.07971791,7.991,-21.292,-9.138,1
-0.35314476,5.380968,7.113772,-0.2968805,-0.3145956,-0.019242255,8.311,-20.614,-9.777,1
0.21308395,5.683835,6.8982935,-0.070554934,-0.15393804,0.08674286,8.311,-19.947,-10.798,1
0.1316811,5.506664,8.339603,-0.20799962,-0.573297,0.028405234,7.655,-19.947,-11.1,1
0.47524905,6.2422824,8.189965,0.32375857,-0.97585726,-0.02687807,6.895,-19.947,-11.787,1
-1.2413936,4.9679685,9.544485,-0.32986724,-0.03970624,0.1142318,5.722,-19.947,-11.787,1
0.3393781,3.4638114,6.4427967,0.7492262,-0.80481493,0.36682457,4.165,-20.262,-11.787,1
0.27114335,3.7786489,5.677251,0.6404922,0.35613444,0.21044308,3.346,-20.976,-11.077,1
0.60453594,4.087501,8.428787,-0.31031954,0.49693888,0.11178834,2.703,-21.812,-10.395,1
1.4173675,3.6631286,9.75697,-1.3066407,-0.7021896,0.5891795,2.388,-22.174,-10.418,1
1.8243817,4.4879313,5.827487,0.5354234,0.29993483,0.7840455,1.676,-21.121,-11.541,1
1.5562311,3.952827,6.9425864,-0.34269542,1.5060883,1.0607675,1.01,-20.716,-12.181,1
0.9331401,3.6104562,8.793304,-0.43279803,1.4758505,1.0201449,1.01,-20.416,-12.181,1
1.1127052,4.3341036,8.156446,-0.15027285,0.54153204,0.6973027,2.062,-20.053,-12.516,1
1.1959038,4.8309007,7.3208704,0.23457226,0.6872234,0.6575964,2.406,-19.407,-12.818,1
-0.52732295,5.677251,8.652645,0.310625,1.0720685,0.7498371,2.725,-19.407,-12.818,1
-2.0745757,3.6990416,9.8916445,-0.2321288,1.6890424,1.3017539,3.427,-20.083,-13.162,1
1.0881647,3.0532057,7.153875,0.23884831,-0.6273586,0.5564982,3.738,-20.384,-13.162,1
-1.8201919,3.6673183,7.5148005,0.8677341,0.28160888,-0.47678033,3.738,-20.726,-12.823,1
-2.7491422,4.18686,7.820061,-0.23976462,0.083383106,-0.2284636,3.419,-21.44,-11.694,1
-1.0540473,4.353257,6.703166,-0.3539964,-1.0439687,-0.535118,3.419,-21.788,-11.694,1
-1.0642227,4.5819035,5.8963203,0.10903945,-0.014966198,-0.23671028,3.419,-21.788,-12.393,1
-0.9959879,3.9354692,8.024766,-0.6383542,-0.113926366,-0.4636467,3.419,-21.092,-12.707,1
-0.89782566,4.1000705,8.177396,0.105374254,-0.5421429,-0.68233645,3.419,-20.756,-13.365,1
-0.3333926,4.6686935,8.099585,0.31215215,-0.71868294,-0.6053675,3.726,-20.423,-14.175,1
-0.24540567,3.4566288,8.577228,-0.31948254,-0.5381723,-0.6258314,3.726,-20.121,-14.492,1
-0.56982,2.8832173,8.6017685,-0.18142697,-0.8790351,-0.89766645,3.726,-20.121,-14.492,1
-0.12868834,2.7018566,7.9313917,-0.027488936,-0.41508293,-0.7654142,3.372,-19.471,-14.863,1
0.04189853,3.0454245,7.7799582,0.24220806,-0.31581733,-1.0115929,3.372,-19.148,-14.863,1
0.39863458,3.6074634,7.740454,0.36193767,-0.12950343,-0.8585711,3.72,-19.148,-15.217,1
-0.3417723,3.1627405,8.765172,-0.18234327,-0.08827003,-0.5644395,4.698,-19.148,-15.217,1
-0.12210429,3.4650085,7.9984293,0.112704635,-0.46914452,-0.37782016,5.378,-19.148,-15.217,1
-0.623091,3.526659,7.9822683,-0.084910266,-0.22266038,-0.2406809,5.683,-19.148,-15.217,1
0.08080431,3.6134489,7.583634,-0.16982053,-0.32650748,-0.15515977,5.683,-19.148,-15.539,1
0.16280572,3.342904,8.533533,-0.21074851,-0.05467244,-0.33536503,5.683,-18.809,-15.843,1
-0.30645782,3.168726,8.921394,-0.06352998,0.04886922,-0.3277292,5.683,-18.479,-16.169,1
-0.29269117,3.1627405,8.246229,0.13927728,-0.25411993,-0.3155119,5.683,-18.17,-16.477,1
-0.25198972,3.2208,7.599795,0.0720821,-0.20647246,-0.19608775,5.683,-18.17,-16.778,1
-0.47884035,3.4464533,8.170812,-0.06688975,-0.13713925,-0.160963,5.99,-18.17,-16.778,1
-0.08200141,3.8325183,8.322245,-0.079107046,-0.14874569,-0.16554448,5.99,-18.17,-16.778,1
-0.077213004,3.9498343,8.297705,0.013744468,-0.01282817,-0.25442538,5.99,-17.863,-16.778,1
-0.39683893,4.1335893,7.8493905,0.18845193,0.07666359,-0.18173242,5.99,-17.863,-16.778,1
-0.109534726,4.127005,7.4471645,0.04062254,0.06078109,0.05222898,6.297,-17.863,-16.778,1
-0.504578,3.757101,8.261791,0.122478485,-0.087964594,0.109650314,6.297,-18.212,-16.778,1
-0.5374983,5.6784477,7.092224,1.6927075,0.5158757,0.007941248,6.297,-18.977,-16.125,1
-0.15263036,7.041946,6.5750766,1.1585059,0.20891592,0.46089783,6.297,-23.558,-13.346,1
-0.28491,6.3619924,6.4152637,0.15668693,-0.04184427,-0.267559,6.297,-24.665,-12.646,1
-0.7026982,6.3302693,6.7025676,0.31581733,-0.10995574,-0.13683382,6.297,-25.282,-11.817,1
0.44352585,6.0687027,6.293758,0.91721416,-0.2687807,-0.22418754,6.599,-25.625,-11.122,1
0.61112,7.5985975,4.1335893,1.1166617,0.094989546,-0.23640485,6.599,-26.725,-8.135,1
-0.7206547,8.433576,4.466982,-0.013133603,-0.07788532,-0.26083946,6.903,-28.143,-6.855,1
-0.20530279,7.4465656,6.8605847,-0.48991394,-0.2843578,0.16920967,7.205,-28.526,-6.759,1
-0.39205053,6.977901,5.469554,0.29626966,-0.18875736,0.3408628,7.205,-28.842,-6.759,1
0.32202014,7.243657,4.4125137,0.3857614,-0.2125811,0.41538838,6.539,-28.842,-6.759,1
0.31902736,6.4008985,5.9400144,-0.5195409,-0.2761111,-0.09407325,5.36,-29.18,-6.759,1
1.2485762,6.9228344,4.7201686,-0.03176499,-0.16737708,-0.37232238,4.75,-29.18,-6.759,1
0.6895301,6.921637,7.0365586,-0.5910121,-0.2938262,-0.6719518,4.75,-28.839,-7.902,1
-0.741604,6.6241574,7.554305,0.04520403,-0.46822822,-0.82253003,5.409,-28.132,-9.608,1
-0.7565677,7.474099,4.1479545,1.0595458,-0.71685034,-0.45875978,5.755,-27.809,-9.956,1
0.095169514,7.7799582,4.1940427,-0.08307768,-0.4868596,-0.20891592,6.105,-28.144,-10.313,1
-0.31423897,7.7386584,5.2726307,-0.22449298,0.19272798,-0.35888332,6.105,-28.454,-10.313,1
-0.8750807,7.8823104,5.29777,-0.37110063,0.20066923,-0.08093964,6.465,-28.454,-10.313,1
-1.0564415,7.150882,5.7586536,-0.9718866,0.8020661,0.22724187,7.527,-28.074,-11.088,1
-1.050456,5.9507885,6.657078,-0.80848014,0.124005646,-0.049480084,8.183,-27.279,-12.164,1
-2.2822728,4.8937483,7.578247,-0.782213,0.41905355,0.12370021,8.845,-26.138,-13.357,1
0.3633201,5.1439424,7.0982094,-0.07544186,0.12461651,0.7825184,9.504,-24.935,-14.424,1
0.46507367,4.1838675,7.581838,-1.1682798,0.26236662,-0.028405234,9.504,-23.771,-15.492,1
-0.7505822,3.6098576,8.098986,-0.41508293,-0.42180246,-0.3866777,9.504,-22.123,-16.685,1
-2.0045455,4.321534,7.633912,-0.20861048,-0.03940081,-0.2406809,9.504,-21.257,-17.807,1
-2.086547,3.1842883,8.90643,-0.57543504,-0.25473082,-0.08857546,9.504,-20.156,-18.572,1
-1.1378443,3.482965,7.5387425,-0.019242255,-0.19456059,0.38148534,9.504,-19.482,-19.544,1
-1.033098,3.667917,7.2047515,0.09407325,0.17867808,0.63071835,9.184,-18.78,-19.868,1
-0.18255788,4.420295,7.067085,0.4266894,1.7033978,0.81245077,9.184,-19.172,-20.17,1
-2.6569653,5.1702785,10.851121,-0.44959682,0.8863655,0.18173242,11.346,-19.477,-19.41,1
-0.1328782,5.1762643,8.881889,0.32803464,1.1065824,0.5458081,12.382,-20.195,-18.751,1
-1.3916297,4.39336,5.719748,-0.033292156,-0.18325958,0.063224554,13.484,-20.512,-17.698,1
-2.0811598,3.0933087,8.566454,-0.7492262,-1.4104879,-0.33322698,13.792,-20.817,-17.698,1
-3.1016884,2.331354,7.510012,-0.13347405,0.26267207,-0.32803464,12.528,-20.191,-18.539,1
-1.965041,3.620033,8.790312,-0.48166725,-0.70157874,-0.464563,11.788,-19.349,-19.609,1
-2.1745336,3.6739025,6.251859,0.5305365,-0.6053675,-0.77854776,11.483,-18.199,-20.327,1
-1.5053543,3.7355533,6.882133,-0.06047566,-0.17715092,-0.32895094,11.158,-17.846,-20.692,1
-2.0667946,4.368221,6.3177,0.7348709,-0.024740042,-0.12522738,10.85,-17.512,-20.692,1
-1.5969325,4.221576,6.7223196,-0.46792278,-0.08032878,-0.027794369,10.85,-17.512,-21.005,1
-2.2008698,2.7060466,10.368689,-1.5800029,-0.41691554,-0.46181414,10.546,-14.256,-22.071,1
-1.939902,2.1511903,9.176376,0.050396383,-0.17837265,-0.2968805,10.232,-12.626,-23.219,1
-1.4012065,1.0109516,8.969278,-0.25778514,-0.12339478,-0.344528,10.232,-11.7,-23.95,1
-0.22804771,1.6118963,7.380127,0.33933565,-0.07513642,0.05009095,10.232,-10.974,-23.95,1
0.97982705,0.9223662,7.916428,-0.47250426,-0.364992,0.019547688,10.232,-10.974,-24.276,1
0.9175778,1.311424,7.9691005,0.8585711,-0.25381452,-0.35521814,9.501,-10.974,-24.584,1
0.22565351,1.3557167,8.180388,-0.93401295,-0.3494149,0.10903945,8.769,-11.305,-24.919,1
1.6956934,1.9219455,8.660426,-0.49357912,-0.6010914,0.7360926,7.009,-10.142,-25.596,1
1.4389153,1.4347254,9.033921,0.070249505,0.59131753,0.070554934,6.069,-9.124,-26.321,1
0.079008654,1.9560628,9.187749,0.52687126,0.5830709,0.20463985,6.636,-8.381,-26.667,1
0.7212533,2.5683799,8.497022,0.65026605,-0.09773844,0.5580254,7.347,-10.528,-26.335,1
2.3540988,3.7175968,7.7147164,1.4636332,-0.6933321,0.14905111,8.047,-14.54,-25.625,1
0.5758055,2.2750902,10.289082,-0.64660084,0.75655663,0.026267206,7.318,-15.138,-25.273,1
-0.40521863,1.8561049,8.89446,-0.10293079,0.41508293,0.005497787,7.318,-15.135,-24.952,1
-1.4646529,1.726818,7.5968018,0.6783658,-0.040927973,-0.077579886,8.732,-15.135,-24.952,1
-1.3006501,2.7850552,7.399879,0.5143485,0.31429017,0.12156218,9.53,-16.517,-24.612,1
-1.1264719,2.384625,7.2526355,-0.10751228,0.04550946,-0.19364429,9.864,-16.87,-23.93,1
-1.520318,3.5248635,7.9409685,0.013744468,0.035124753,-0.15454891,10.516,-17.613,-23.93,1
-0.4890157,3.655946,8.269572,0.065973446,-0.36865717,0.043982297,10.516,-17.613,-23.605,1
-0.06943185,4.0653543,7.855974,0.16279559,-0.5342017,-0.23487769,10.208,-17.613,-23.605,1
-0.3274071,4.0503907,8.258201,0.14538592,-0.4352415,-0.26328292,9.454,-17.613,-23.91,1
-0.14963761,4.4639893,7.700351,0.23640485,-0.43982297,-0.13469578,8.236,-17.613,-24.247,1
0.66498953,4.89315,8.251018,0.258396,-0.7858781,-0.20311269,7.417,-17.962,-24.554,1
0.55365914,3.715801,9.584588,-0.12308934,-0.5122105,-0.31856623,6.33,-18.618,-24.554,1
1.0977415,4.0456023,6.593033,0.33353242,-0.34055737,-0.21319197,5.128,-18.954,-24.554,1
1.2856863,3.3213563,7.32506,-0.25809056,0.035430185,0.0036651916,4.496,-19.27,-24.554,1
1.6334441,2.678513,8.831013,-0.55955255,0.15088372,0.106595986,4.496,-19.27,-24.554,1
1.6118963,2.681506,8.814254,-0.26297748,-0.0015271631,-0.03390302,4.496,-18.218,-24.913,1
0.41479546,3.0735564,7.1820064,0.03634648,0.2706133,0.029321533,4.817,-17.178,-25.572,1
0.86849666,3.3955765,7.5082164,-0.24098633,0.11911872,0.34513888,5.522,-16.857,-25.572,1
0.9756372,3.2842462,8.743625,-0.56596667,0.03726278,0.25442538,5.522,-16.18,-25.572,1
0.99179804,3.353678,8.385692,-0.0693332,0.40500367,0.29443705,5.522,-15.463,-26.229,1
1.0193313,3.46022,8.6712,0.19517145,0.25289822,0.24465153,6.182,-14.779,-26.538,1
1.0402806,3.6912606,8.636484,0.3921755,0.19303341,0.022602014,6.509,-14.779,-26.538,1
-0.43634325,3.6481647,8.697536,0.29932398,0.72509706,0.18875736,7.685,-15.46,-25.453,1
0.10055647,2.8700492,8.866327,-0.010079277,0.0009162979,0.42180246,8.453,-16.658,-24.757,1
0.78050977,3.0017304,7.5213847,0.2003638,-0.3735441,-0.063224554,8.821,-17.343,-24.368,1
-0.87687635,2.2152352,8.413823,-0.1282817,0.09682214,-0.15790866,8.821,-17.677,-24.034,1
-1.0103531,2.7910407,7.958925,-0.21288654,0.43554693,0.32498032,8.821,-17.677,-24.034,1
0.17776948,3.1555579,8.5538845,-0.34147367,-0.41691554,-0.016798794,8.821,-17.344,-24.034,1
-0.6799533,3.7828386,6.752846,0.21868975,0.20586158,-0.004276057,8.821,-17.013,-24.034,1
-1.158195,3.413533,8.382699,-0.16249016,0.3744604,0.058337633,8.821,-16.694,-24.371,1
-0.3226187,3.8534677,7.6961613,0.029626964,-0.24801129,-0.032070424,8.821,-16.694,-24.371,1
-0.29149407,4.224569,8.30369,-0.020158553,-0.29993483,-0.01160644,9.164,-16.386,-24.053,1
0.05865794,4.4514194,8.6496525,0.17989981,-0.36560285,0.024740042,8.482,-16.075,-24.053,1
0.5746084,3.9031472,9.531317,-0.043676864,-0.32589662,-0.20799962,7.752,-16.075,-24.053,1
-0.8158242,2.7156234,8.433576,0.09987647,-0.10170906,-0.20372356,7.382,-16.075,-24.053,1
0.46567222,2.5552118,7.595605,0.022296581,-0.26908615,0.15057829,6.727,-16.075,-24.053,1
1.6172832,2.1218612,8.10138,0.07452556,-0.23426682,0.15882497,6.016,-15.759,-24.38,1
1.287482,2.475006,7.235876,0.122783914,0.14660765,-0.03940081,5.364,-15.759,-24.38,1
1.3503298,2.3373394,9.1512375,-0.35155296,-0.26847526,-0.073303826,5.364,-15.759,-24.684,1
1.0378864,3.1597476,7.3885064,0.009773844,-0.101098195,0.084910266,5.047,-15.38,-24.684,1
1.299453,3.1112652,8.66282,-0.22204952,-0.13041973,-0.035124753,4.348,-14.721,-25.047,1
1.1198878,3.3291376,8.231864,0.15057829,0.0076358155,0.058643065,4.003,-14.39,-25.364,1
1.0187328,3.8307228,7.724293,0.22785273,0.3304781,0.047647487,4.003,-14.39,-25.364,1
1.0893618,3.8355112,8.32045,0.076358154,0.24617869,0.05009095,4.354,-14.39,-25.041,1
0.96546185,4.2556934,7.5507135,0.3051272,0.20463985,0.07727446,4.656,-14.715,-25.041,1
0.6380547,4.24073,8.813655,-0.014049901,0.35430184,0.22449298,5.662,-15.048,-24.729,1
0.47884035,3.108871,9.961076,-0.2828306,0.39828414,0.3136793,6.011,-15.364,-24.392,1
1.2156559,3.2333694,6.4523735,0.4886922,-0.10629055,-0.03848451,7.029,-15.364,-24.092,1
-0.3890578,2.4636335,8.082825,-0.15149458,0.29840767,-0.1591304,7.029,-15.364,-24.092,1
-0.6135142,2.5540147,8.173206,0.07391469,0.17165314,0.044898596,7.716,-15.364,-23.765,1
0.18255788,2.944868,8.845977,-0.29779682,-0.1591304,-0.2501493,8.035,-15.036,-23.419,1
-0.31184477,3.5859156,7.255628,0.039095376,-0.16676621,-0.42363504,8.035,-14.08,-23.08,1
-0.81043726,3.4045548,8.409035,-0.48655418,0.19150625,-0.17837265,8.386,-13.375,-23.08,1
-0.49799395,3.4320881,8.348581,0.00061086525,-0.18142697,-0.31123585,8.715,-12.374,-23.435,1
-0.28431144,3.964798,8.302493,0.10995574,-0.28619036,-0.32925636,9.04,-11.302,-23.742,1
-0.26036942,4.2078094,8.618527,0.35002577,-0.35277468,-0.2751948,9.04,-10.993,-23.742,1
-0.8319851,4.0737343,8.448539,0.36010507,-0.21930063,-0.269697,8.729,-10.993,-23.742,1
0.2681506,4.5842977,8.133103,0.42485678,-0.59986967,-0.33078352,8.355,-11.637,-23.742,1
-0.06943185,3.6900635,8.309077,0.048258353,-0.25350907,-0.26389378,7.704,-12.278,-23.742,1
-0.23283611,3.5338416,7.1634517,0.4792238,-0.11301007,0.008857546,7.365,-13,-23.742,1
0.9923966,3.3063924,7.1604586,0.52442783,-0.31764993,-0.03604105,7.365,-13.674,-23.742,1
0.74639237,3.606865,7.890092,-0.009468411,0.0070249503,-0.00030543262,7.043,-14.364,-23.742,1
1.0450691,4.284424,6.9437833,-0.10445796,-0.2611449,-0.044898596,6.719,-15.037,-23.742,1
0.8110358,4.056975,8.568848,-0.364992,-0.33567044,0.063224554,6.387,-15.037,-24.058,1
1.2072762,5.01286,6.4457893,0.13103059,-0.3023783,0.34269542,5.665,-14.375,-24.388,1
1.2521675,4.410718,8.137293,-0.23762658,0.055283304,0.19028452,4.911,-13.993,-25.056,1
1.4826094,4.644751,7.668628,-0.06872234,0.28160888,0.24251351,4.234,-13.351,-25.056,1
1.3670892,4.727351,8.145673,-0.099571034,0.37110063,0.090713486,4.234,-13.032,-25.056,1
1.1803415,5.0403934,7.4603324,0.27763826,0.35033122,-0.10048734,4.94,-13.032,-25.373,1
0.7344214,5.0787005,7.7171106,0.16707164,0.21013765,-0.047647487,6.205,-13.032,-25.688,1
0.97623575,4.437653,8.081628,-0.0729984,-0.03726278,0.0852157,6.903,-13.356,-25.688,1
1.2641385,4.1078515,6.949769,0.20066923,-0.24007004,0.03940081,7.226,-13.356,-25.37,1
0.7068881,4.132991,7.6494746,-0.12217305,0.100792766,-0.16157386,7.226,-13.356,-25.37,1
0.16639702,3.719991,7.9792757,-0.09743301,0.19639318,-0.021991149,7.226,-13.356,-25.37,1
-0.5554548,3.6218286,7.4208283,0.01160644,0.17959438,-0.039095376,7.574,-13.356,-25.695,1
-0.81642276,4.1371803,7.61835,-0.17165314,0.1685988,0.013439035,8.689,-13.043,-25.695,1
-0.31124622,4.1916485,8.740033,-0.4352415,0.21197024,0.05467244,9.312,-12.248,-26.028,1
0.027533319,4.486734,6.881534,0.17928895,-0.03756821,-0.06994407,9.643,-11.576,-26.344,1
-0.5231331,4.243124,7.4866686,0.0983493,0.13652839,-0.03726278,9.97,-11.264,-26.344,1
-0.35194764,4.642956,7.475296,-0.00580322,-0.14721853,-0.1994475,9.97,-11.264,-26.344,1
-0.1376666,5.0541596,7.401076,0.21166481,-0.27152961,-0.25259277,10.295,-11.264,-26.344,1
-0.22864626,5.0493712,7.49026,0.28710666,-0.38820487,-0.16584991,10.295,-11.264,-26.647,1
0.21906945,5.498883,7.0527196,0.26633725,-0.5348125,-0.20463985,9.553,-11.264,-26.647,1
-0.061650693,4.9344497,9.2308445,-0.16462818,-0.4633413,-0.20555615,8.372,-11.917,-26.957,1
-0.60812724,4.209605,8.361151,-0.115453534,0.12522738,0.07086037,7.71,-11.917,-27.268,1
0.23642741,4.1282024,6.7600284,0.2883284,-0.12370021,0.15515977,7.71,-11.917,-27.587,1
1.3126211,3.537433,7.61416,-0.01160644,0.0036651916,-0.038179077,7.71,-11.917,-27.587,1
1.7232267,3.8121676,7.2873516,-0.0036651916,-0.0983493,-0.14752395,7.71,-12.243,-27.587,1
0.4177882,4.1599255,8.032547,-0.26297748,-0.021380283,-0.009162978,7.71,-12.243,-27.587,1
0.30107087,4.657321,7.728483,-0.24404067,0.07391469,0.22327125,7.71,-11.915,-27.587,1
1.0007763,4.732738,7.8505874,-0.310625,0.108123146,0.08399397,7.71,-11.198,-27.911,1
0.49081135,4.23654,8.246229,-0.12003502,0.32650748,0.014966198,8.393,-10.124,-27.911,1
0.41718966,4.445434,7.1305313,0.055283304,0.24251351,0.1414153,9.432,-9.431,-27.911,1
-0.37708676,3.9234982,7.65965,-0.07849618,0.3145956,0.122478485,10.461,-9.431,-27.911,1
0.034715924,4.658518,7.4286094,0.15699236,0.19303341,0.2125811,11.236,-9.431,-27.911,1
-0.3441665,4.8458643,7.880515,0.042455133,0.30207285,0.2782491,11.936,-9.796,-27.603,1
0.078410104,5.073912,8.788516,0.13072516,0.109650314,0.40378192,12.644,-10.501,-27.603,1
0.75237787,4.3329067,8.19236,0.16737708,0.0106901415,0.33261612,12.968,-11.192,-27.603,1
0.4417302,3.775656,7.884106,0.054367006,-0.014049901,-0.036957346,13.316,-12.289,-27.603,1
-0.75956047,3.7840357,6.909666,0.3912592,0.13805555,0.07147124,13.653,-12.669,-27.293,1
-0.7146692,3.606865,8.206126,-0.27305678,0.063224554,0.15699236,13.987,-13.343,-26.989,1
0.5021838,4.262876,7.563882,-0.026267206,-0.3463606,0.025961773,14.318,-13.664,-26.989,1
0.10414778,4.735731,6.7324953,0.057726767,-0.16218472,-0.18936823,13.966,-13.664,-27.297,1
-0.3321955,4.253299,7.914034,-0.17134771,-0.12492194,-0.27855456,13.966,-13.664,-27.297,1
-0.19393034,4.63278,7.389105,-0.08857546,-0.20677789,-0.3481932,13.635,-13.352,-27.619,1
0.05925649,4.9296613,7.3190746,-0.04153884,-0.30451632,-0.2996294,13.635,-12.667,-28.012,1
-0.095169514,4.9045224,7.9086466,-0.064446285,-0.28863382,-0.3735441,13.308,-12.013,-28.323,1
0.0796072,5.134964,8.016386,0.13164146,-0.36163223,-0.3894266,12.971,-11.701,-28.323,1
0.13467385,4.8668137,8.883087,-0.03268129,-0.46028697,-0.4596761,12.322,-11.401,-29.06,1
-0.3250129,4.127005,7.939771,0.22510384,-0.21074851,-0.33536503,11.66,-11.085,-29.388,1
-0.092176765,4.1144357,6.969521,0.31490102,-0.112704635,-0.061086524,11.357,-11.085,-29.388,1
0.60333884,3.928885,7.6614456,-0.06688975,-0.12492194,-0.1282817,11.054,-11.759,-29.388,1
0.6913257,3.9031472,7.611766,0.00580322,-0.063224554,-0.13622294,11.054,-12.118,-29.388,1
1.151611,4.0019083,7.7703815,-0.09315695,-0.12522738,-0.04550946,10.746,-12.118,-29.388,1
0.91937345,4.2000284,8.107366,-0.08979719,-0.12034045,-0.058948494,10.446,-12.118,-29.388,1
0.83976626,4.6441526,7.101202,-0.007941248,-0.032070424,0.011301007,10.446,-12.118,-29.388,1
1.0115502,4.478953,7.4711065,-0.09132435,-0.0580322,-0.039095376,10.134,-11.811,-29.388,1
1.0935516,4.5687356,7.3909006,-0.12217305,-0.047647487,-0.08155051,10.134,-11.811,-29.736,1
0.729633,4.905121,7.53575,-0.15332718,0.009773844,-0.10415252,10.134,-11.495,-29.736,1
0.41838676,4.992509,8.017583,-0.118202426,0.15851954,-0.0106901415,10.134,-10.763,-30.068,1
0.5303157,5.020641,7.3938932,0.092240654,0.1600467,-0.017715093,10.134,-10.456,-30.395,1
0.47225627,5.3049526,7.654263,0.14019357,0.20586158,-0.0061086523,10.824,-10.456,-30.395,1
0.3645172,4.987122,8.697536,0.04153884,0.1563815,0.08246681,11.457,-10.838,-30.395,1
0.63087213,4.1635165,7.551911,0.1301143,0.060170226,0.04550946,11.787,-11.466,-30.093,1
0.05805939,3.9025488,7.08564,-0.017104227,0.06841691,-0.15302174,12.434,-11.778,-29.757,1
-0.79726917,3.3614593,8.327033,-0.14538592,0.12186762,0.00030543262,12.76,-12.107,-29.757,1
-0.4866215,4.0025067,7.1502833,0.12217305,-0.062308256,0.027183503,13.09,-12.413,-29.757,1
-0.682946,3.7421372,8.428188,-0.30543262,-0.009162978,-0.15790866,13.09,-12.413,-30.078,1
-0.14425065,4.384382,7.1407065,0.23457226,-0.28099802,-0.23640485,13.395,-12.413,-30.078,1
-0.5434838,4.633379,7.1167645,-0.11362094,-0.13408493,-0.18081611,13.075,-12.097,-30.078,1
-0.272939,4.4562078,7.852383,-0.0009162979,-0.1328632,-0.076358154,12.753,-11.795,-30.4,1
-0.16759412,4.857237,7.144298,0.0027488936,-0.20708331,-0.1432479,12.435,-11.795,-30.758,1
-0.32022446,5.1116204,7.8823104,0.03145956,-0.31490102,-0.061391957,12.435,-11.436,-31.079,1
-0.3657143,5.2863975,7.135918,0.1518,-0.1591304,-0.015882496,11.791,-11.436,-31.079,1
0.007182605,5.4887075,7.9421654,-0.07819075,-0.49938235,-0.06047566,10.733,-11.775,-31.079,1
0.95708215,4.5579615,8.703522,-0.112399206,-0.73456544,-0.27550024,9.172,-12.104,-31.726,1
0.641646,4.016872,8.482059,0.25778514,-0.41386122,-0.16432275,7.466,-12.104,-32.073,1
0.6404489,4.3502645,6.9988503,0.30482176,0.005497787,0.007941248,6.506,-12.477,-32.45,1
0.5943606,3.5763388,8.368932,0.16340645,0.051618114,-0.0067195175,5.847,-13.494,-32.45,1
1.3311762,4.068946,7.1634517,0.35308012,-0.19242255,0.03390302,5.506,-14.503,-31.723,1
1.7932571,4.5543704,6.5457473,0.24007004,-0.10567969,0.07513642,5.189,-15.695,-31.387,1
1.9602526,4.667496,7.121553,-0.040927973,0.0033597588,-0.02076942,4.879,-16.839,-31.057,1
1.0456676,4.8745947,7.317279,-0.10842858,0.24923302,0.13927728,4.879,-17.153,-30.744,1
0.95947635,5.121197,7.294534,-0.13927728,0.34605515,0.31795537,5.203,-17.153,-30.744,1
1.1767502,5.120599,6.9677253,-0.056505036,0.28069258,0.29138273,5.58,-16.796,-30.744,1
1.6232687,5.1020436,7.2310877,-0.17134771,0.19456059,0.21991149,6.251,-16.484,-30.744,1
1.2120646,5.217564,7.751827,-0.04734206,0.23915374,0.14446963,6.575,-16.484,-30.744,1
1.1486182,5.6066217,7.125743,0.13072516,0.19547687,0.074830994,6.893,-16.177,-30.744,1
1.0205284,5.6006365,7.5112095,0.08032878,0.23793201,0.0061086523,7.568,-16.177,-30.744,1
0.48482585,5.6706667,7.5309615,0.100792766,0.32436943,0.05375614,8.274,-16.85,-30.101,1
0.4369418,5.386954,7.2023573,0.099265605,0.25442538,0.17562376,9.202,-17.497,-29.421,1
0.78050977,4.9123034,6.9731126,0.14844026,0.014966198,0.049785517,9.846,-17.831,-29.112,1
0.062249243,4.378995,8.11395,-0.063224554,0.10567969,-0.014660766,9.846,-18.531,-29.112,1
-0.10115502,4.23235,6.9144545,0.22204952,-0.032375857,0.07269296,9.846,-18.884,-28.762,1
-0.2657564,4.4927197,6.667852,-0.04337143,0.0106901415,0.08093964,9.846,-19.219,-28.446,1
0.22744916,4.6016555,8.0445175,-0.3622431,-0.3051272,-0.122478485,9.846,-19.549,-28.12,1
-0.007182605,5.240309,6.655282,-0.0729984,-0.15668693,-0.19303341,9.535,-19.549,-28.466,1
0.46507367,5.216367,7.781754,-0.21899518,-0.16340645,-0.04520403,9.535,-18.878,-28.825,1
0.08080431,5.2486887,7.2592196,-0.0729984,-0.09315695,-0.1740966,9.17,-18.231,-29.489,1
0.51595044,5.410896,7.426215,-0.1142318,-0.16829337,-0.14569137,8.848,-17.898,-29.789,1
0.3405752,5.209783,7.855376,-0.08582657,-0.18753563,-0.19853121,8.532,-17.562,-29.789,1
0.45609543,5.33907,7.4615297,0.10781772,-0.29626966,-0.22724187,8.195,-17.253,-30.122,1
0.7835025,4.772841,8.557475,-0.19822577,-0.40866885,-0.3539964,7.527,-17.253,-30.122,1
-0.17417817,3.9743748,8.228871,-0.14660765,0.124311075,-0.25473082,6.866,-16.94,-30.122,1
-0.24001873,3.5212722,7.462128,0.031154128,0.17684549,-0.017715093,6.866,-16.603,-30.122,1
0.40282443,3.2680852,7.6590514,0.018936822,-0.03573562,-0.064751714,6.866,-16.288,-30.122,1
0.9756372,3.5535939,7.6800003,0.057421334,-0.13164146,-0.013439035,6.866,-16.288,-29.808,1
0.7368156,3.5051112,8.117541,-0.09712757,-0.013744468,0.04642576,6.866,-16.288,-29.808,1
0.7493851,4.302979,7.741651,0.3707952,-0.010995574,0.2565634,6.539,-16.288,-29.495,1
1.1563994,4.7177744,7.3609734,0.00580322,-0.0106901415,0.14172074,6.204,-16.606,-29.191,1
1.2533646,4.586692,7.121553,-0.026267206,-0.04550946,-0.02076942,5.892,-17.26,-28.561,1
0.9355343,4.573524,7.6973586,-0.18784106,0.12705997,0.01282817,5.892,-17.26,-28.561,1
0.6392518,4.8781857,7.244256,-0.033292156,0.21655174,0.015271631,5.892,-17.26,-28.878,1
0.44232875,5.285799,7.5788455,-0.08460484,0.29993483,0.10598512,5.892,-16.947,-28.878,1
0.2741361,5.4234653,7.6584525,0.05131268,0.3933972,0.1441642,6.646,-16.947,-28.878,1
0.31304187,5.4641666,7.6081743,0.15332718,0.22693644,0.086437434,7.725,-16.947,-28.526,1
-0.11492168,4.903325,8.697536,-0.043066,0.258396,0.10262536,8.412,-16.947,-28.204,1
0.5153519,4.402937,7.4830775,0.16920967,-0.22571471,0.029626964,8.412,-17.277,-27.861,1
0.02633622,3.8552632,7.281366,-0.029321533,-0.1337795,-0.13500121,8.412,-17.63,-27.539,1
-0.49919105,3.4703953,7.548918,0.08307768,0.012217305,-0.015577064,8.097,-17.938,-27.539,1
-0.8822633,3.8163576,7.441777,-0.013439035,0.10293079,0.053145275,7.768,-18.264,-27.233,1
-0.32142156,4.088698,8.226477,-0.38026363,-0.10293079,-0.030848695,7.768,-18.264,-27.233,1
0.23223756,4.3526587,7.3789296,-0.076358154,-0.29168814,-0.23457226,7.768,-18.264,-27.233,1
-0.37828386,4.4460325,7.566276,0.03848451,-0.0983493,-0.3472769,7.444,-17.587,-27.568,1
-0.55844754,4.1934443,8.215105,-0.14813483,-0.15851954,-0.35643986,7.135,-17.28,-27.568,1
-0.08798691,4.7381253,7.2352777,0.04184427,-0.31398472,-0.36102137,7.135,-16.969,-27.886,1
-0.14544775,4.7261543,7.7590094,-0.018325957,-0.33200526,-0.2660318,6.834,-16.641,-27.886,1
-0.39923313,5.029021,7.4776907,0.20372356,-0.37293324,-0.1853976,6.19,-16.641,-27.886,1
0.3321955,5.241506,8.124125,-0.09743301,-0.4822781,-0.22602014,5.541,-16.641,-27.571,1
0.55844754,4.4795513,8.883087,-0.04062254,-0.40469822,-0.34330627,4.357,-16.641,-27.571,1
-0.142455,3.9624038,7.6470804,0.1740966,-0.047647487,-0.08399397,3.689,-16.641,-27.571,1
0.0023942017,4.24492,6.787562,0.28038713,-0.10720685,0.04795292,3.379,-16.641,-27.268,1
0.9295488,3.9839516,8.209718,-0.16829337,-0.22296582,-0.008246681,3.036,-16.944,-26.94,1
1.204882,3.6721067,8.059482,0.0983493,-0.1020145,0.05009095,2.41,-16.944,-26.94,1
1.5514427,3.86903,7.1341224,0.1142318,-0.051618114,0.09254608,2.073,-16.944,-26.632,1
1.5969325,3.9971197,7.723695,-0.038179077,-0.05467244,-0.008857546,1.768,-16.944,-26.632,1
1.2509704,4.331111,8.127716,-0.067500606,0.018020526,0.0021380284,1.768,-17.274,-26.632,1
1.228824,4.5555673,7.355586,0.048258353,-0.16829337,0.01038471,1.426,-17.274,-26.324,1
1.6711528,4.746505,7.423821,0.07147124,-0.3555236,-0.004581489,1.08,-17.274,-26.008,1
1.9488802,5.101445,7.079056,-0.046731193,-0.11453723,0.003970624,0.43,-17.274,-26.008,1
1.0462662,5.029021,7.257424,-0.04520403,0.2724459,0.043066,0.112,-17.274,-25.683,1
0.84814596,5.080496,7.44896,-0.096516706,0.44898596,0.14782938,0.112,-17.274,-25.683,1
0.7236475,5.1277814,7.467515,-0.013439035,0.52656585,0.19333886,1.208,-16.963,-25.683,1
0.43754035,5.249287,7.563283,0.03970624,0.59589905,0.23457226,2.461,-16.661,-25.683,1
0.4950012,4.9943047,8.054693,-0.007941248,0.45998153,0.30115658,3.793,-16.661,-25.683,1
0.91578215,4.4759603,7.979874,-0.093462385,0.12614368,0.24617869,4.536,-16.661,-25.376,1
0.9151836,4.1641154,7.0844426,0.14294247,0.05009095,-0.0061086523,4.917,-16.661,-25.067,1
0.019153614,3.9641995,7.27957,0.06872234,0.08460484,-0.09040806,5.239,-16.661,-25.067,1
-0.049081136,3.9438488,7.1730285,0.04184427,-0.12034045,-0.08674286,5.239,-16.661,-25.067,1
-0.31543607,3.82773,7.839215,-0.122783914,-0.07269296,-0.20616703,5.239,-16.661,-25.067,1
-0.635062,3.7104142,8.176199,-0.094989546,-0.0018325958,-0.19730948,5.239,-16.661,-25.067,1
-0.6536171,4.1641154,7.650073,-0.0018325958,-0.08735373,-0.12064589,5.239,-16.661,-24.763,1
0.17896658,4.602853,7.402273,-0.17654006,-0.19456059,-0.09407325,5.239,-15.989,-24.763,1
-0.18016368,4.1826706,8.073847,-0.25595254,-0.13988814,-0.16890424,4.895,-15.667,-25.103,1
-0.4441244,4.1677065,7.831434,-0.19028452,-0.099265605,-0.08979719,4.565,-15.002,-25.103,1
-0.49200845,4.5423994,7.5447283,-0.08857546,-0.03634648,-0.077579886,4.565,-14.622,-25.465,1
0.077811554,4.809353,7.7733746,0.020158553,-0.27977628,-0.08735373,4.565,-14.314,-25.465,1
0.05566519,4.702811,7.937976,0.19242255,-0.4382958,-0.13591751,4.241,-13.989,-25.465,1
0.28311434,4.863222,7.6015906,0.113926366,-0.35643986,-0.02107485,3.549,-13.989,-25.465,1
0.10414778,4.305373,9.331401,-0.11301007,-0.29901853,-0.049785517,2.748,-13.989,-25.465,1
-0.47764325,4.1814733,7.2622123,0.40530908,0.17165314,0.2415972,2.064,-13.989,-25.16,1
0.51834464,3.8229415,8.467094,0.22113322,0.15424347,0.4147775,1.759,-14.343,-24.803,1
0.39683893,3.4614172,7.663241,0.22693644,0.36132678,0.0729984,2.09,-15.013,-24.491,1
1.22224,3.6864722,7.429208,0.09987647,-0.10293079,0.19181168,2.09,-15.327,-23.817,1
0.6440403,3.982156,7.8068933,-0.06352998,0.030543262,0.35277468,2.409,-15.649,-23.483,1
0.2681506,4.1982327,7.5770497,0.081855945,0.14294247,0.6056729,2.095,-15.649,-23.182,1
1.2491747,4.437653,7.217321,0.16493362,-0.077579886,0.6441574,1.733,-15.649,-23.182,1
1.7280151,4.5160627,6.9850836,0.076052725,0.07819075,0.5580254,1.399,-15.988,-23.182,1
1.977012,4.727351,7.4136457,-0.031154128,0.2855795,0.5109888,1.049,-15.988,-22.845,1
1.8207904,5.1720743,7.2622123,-0.0842994,0.37782016,0.46028697,1.049,-15.988,-22.534,1
1.70946,5.3761797,7.280169,-0.053145275,0.44257188,0.28344148,1.049,-15.988,-22.534,1
1.1504139,5.3247046,7.6931686,0.0027488936,0.49632803,0.22602014,1.814,-15.988,-22.534,1
0.374094,5.269039,7.4788876,0.20647246,0.50579643,0.30970868,2.502,-15.687,-22.534,1
0.95708215,5.1355624,8.09719,-0.49877146,0.39736784,0.113926366,3.57,-15.687,-22.229,1
0.8714894,3.5793316,8.661025,-0.4877759,0.124311075,-0.07971791,4.516,-15.687,-21.896,1
0.52971715,2.7539306,6.929418,0.14630222,0.10873401,-0.50701815,4.843,-14.39,-21.896,1
-0.760159,2.4504654,8.084022,0.18753563,0.011911872,-0.16646078,5.514,-13.681,-22.227,1
0.6847417,3.3033998,8.22109,-0.3979787,-0.44837508,-0.0012217305,5.867,-13.681,-22.227,1
1.377863,4.39755,7.2783732,-0.048258353,-0.5720753,-0.56688297,5.867,-13.681,-22.227,1
-0.46567222,3.5877113,8.855554,-0.2180789,0.026267206,-0.7293731,5.514,-12.957,-22.227,1
-0.7428011,3.9492357,7.6973586,0.046120327,-0.22693644,-0.67164636,5.166,-12.623,-22.227,1
-0.32321724,4.4436383,7.78355,-0.024129177,-0.35735616,-0.6618725,5.166,-11.9,-22.227,1
0.11851298,4.827309,8.12233,0.16676621,-0.3830125,-0.52412236,4.835,-11.59,-22.227,1
0.01616086,5.99149,8.372523,0.22418754,-0.4465425,-0.625526,4.507,-11.59,-22.546,1
0.8487445,5.345654,10.057443,0.20708331,-0.63529986,-0.6435465,3.807,-11.286,-22.546,1
-0.7553706,3.3848026,9.155427,0.7425067,-0.064751714,-0.548557,3.204,-11.619,-22.546,1
-0.6805518,3.8654387,7.2622123,0.65301496,-0.20616703,-0.13744467,3.204,-13.162,-22.219,1
0.78050977,4.0396166,7.6560583,0.90102625,-0.47891834,0.3717115,2.894,-14.343,-21.551,1
2.7790697,5.1038394,3.9145198,0.625526,-0.28893927,-0.0012217305,1.76,-17.068,-20.693,1
1.0995371,5.1002483,6.654085,-0.33750305,0.5345071,-0.32253686,1.431,-17.379,-19.894,1
-0.16759412,4.449025,7.2592196,-0.23854288,0.40225476,-0.18906279,1.792,-17.764,-19.57,1
0.3405752,5.029619,6.5625067,0.13713925,-0.009468411,0.10445796,2.94,-17.387,-20.271,1
1.0815806,5.737106,6.465542,0.09987647,-0.087964594,0.21166481,3.244,-17.387,-20.271,1
1.0791864,6.364985,6.5936313,-0.013744468,-0.02076942,0.093462385,3.244,-17.387,-19.923,1
0.23463176,6.7229185,7.1993647,-0.028405234,0.39675698,0.03848451,3.244,-17.387,-19.621,1
0.2717419,6.870162,6.8767457,0.116675265,0.27183503,0.106901415,3.244,-17.387,-19.3,1
0.061650693,6.953959,7.1885905,0.22296582,0.39522982,0.054367006,3.929,-17.387,-19.3,1
-0.2813187,6.994062,6.3913217,0.5467244,0.3371976,0.21746802,4.589,-18.06,-18.968,1
0.36032736,6.319495,6.159084,0.5137377,0.50946164,0.3042109,5.23,-19.165,-18.362,1
0.7386112,6.307524,5.7616463,0.5235115,0.06414085,0.12003502,5.88,-20.246,-17.326,1
-0.7140707,6.401497,5.2355204,0.50671273,0.22021692,-0.01863139,5.88,-21.513,-16.586,1
-1.508347,7.0886326,4.1677065,0.36835176,0.3042109,0.18387043,6.193,-22.685,-15.544,1
-0.12569559,7.8128786,5.913678,-0.50579643,-0.053450707,0.15027285,6.503,-23.339,-15.179,1
0.3812766,7.351995,5.7987566,-0.07422013,-0.2855795,-0.23457226,6.503,-23.339,-15.179,1
-0.7685388,7.265205,4.0761285,0.6365216,-0.16065755,-0.07971791,6.503,-23.03,-15.179,1
-0.4321534,6.8881183,4.7764325,-0.45753807,-0.84971356,-0.02443461,6.193,-23.03,-15.179,1
-0.30885202,7.479486,6.083068,-0.60994893,-0.18875736,0.024129177,5.497,-23.03,-15.179,1
-0.04249708,7.7027454,6.0172276,-0.3930918,-0.16279559,0.062308256,4.779,-22.631,-15.882,1
0.25498247,7.5082164,6.5241995,-0.30207285,-0.12217305,-0.016798794,4.478,-21.42,-16.516,1
0.51355624,6.9988503,7.740454,-0.18448131,-0.19486602,-0.14721853,4.173,-20.802,-16.868,1
0.2789245,6.367978,5.932832,0.226631,-0.06261369,0,3.86,-20.487,-17.199,1
0.439336,5.831677,6.045359,0.09621128,0.018936822,-0.007330383,3.86,-20.487,-17.199,1
0.22924481,5.5605335,5.8244944,0.14049901,0.21930063,-0.17134771,4.165,-20.487,-16.493,1
1.3150153,5.9501896,6.673837,-0.2837469,-0.101098195,-0.09285152,4.165,-20.487,-16.493,1
0.4417302,6.38773,6.941389,-0.21594086,-0.00580322,-0.08399397,4.165,-20.487,-16.493,1
0.21428105,6.599617,6.2644286,-0.046731193,0.082161374,-0.00030543262,4.165,-19.86,-17.156,1
0.36272156,6.239888,6.365584,-0.03573562,-0.121256754,-0.14905111,4.165,-19.529,-17.465,1
0.40701428,6.542156,6.2404866,0.043676864,-0.03940081,-0.014660766,4.165,-19.529,-17.465,1
0.30526072,6.8486137,6.6510925,-0.08124508,0.22143865,0.15974127,4.165,-19.529,-17.465,1
0.3357868,7.065888,6.469133,0.13775012,0.3145956,0.08827003,4.49,-19.529,-17.138,1
0.06404489,7.323863,5.919065,0.27152961,0.34422258,0.029932396,4.832,-19.529,-17.138,1
0.32800564,6.7708025,6.9904704,0.03176499,0.2434298,0.21197024,5.189,-20.167,-16.816,1
0.59017074,6.517616,6.4128695,0.19394971,0.14966199,0.14355333,5.567,-20.477,-16.505,1
0.10414778,6.4565635,5.141548,0.7742717,0.11759156,-0.12614368,5.886,-21.11,-16.076,1
-0.7661445,6.305729,4.537611,-0.22937989,-0.22113322,-0.0009162979,6.207,-21.74,-15.438,1
-0.9068039,6.173449,6.5218053,-0.59742624,-0.364992,-0.23304509,6.207,-22.048,-15.113,1
-1.0354922,6.1357403,6.697779,-0.47586402,-0.3998113,-0.2733622,6.207,-21.656,-15.467,1
-0.14425065,6.3781533,7.3849154,-0.4636467,-0.2611449,-0.0580322,5.876,-20.8,-16.215,1
-0.6159084,6.7743936,5.9047,-0.013439035,-0.021685716,0.040011674,5.548,-19.715,-16.516,1
-0.28431144,6.0639143,6.4008985,-0.17989981,-0.07880162,-0.049480084,5.548,-19.369,-16.821,1
-0.32202014,6.6774287,5.985504,-0.04917465,-0.38331795,-0.037873644,5.238,-19.056,-16.821,1
-0.45190558,6.55293,7.167641,-0.05467244,-0.28863382,0.089186326,4.884,-19.056,-17.462,1
0.11851298,6.8264675,6.587646,0.2302962,-0.41691554,0.050396383,4.222,-18.753,-17.462,1
0.8571242,6.5487404,7.1927805,0.0076358155,-0.43493605,-0.16371189,3.173,-18.753,-17.462,1
-0.15682021,5.686229,8.127118,-0.24587326,0.084910266,-0.04734206,2.867,-19.061,-17.462,1
0.9020155,5.7059813,6.2584434,0.183565,-0.02321288,0.23732115,2.561,-19.061,-17.462,1
1.2611457,5.096657,6.4416,-0.081855945,0.08552113,-0.06536258,2.561,-19.061,-17.462,1
0.93134445,4.772841,7.016208,-0.24587326,0.26236662,-0.07086037,2.561,-19.061,-17.462,1
1.7286136,5.2002063,7.0227923,-0.053145275,-0.13683382,0.04734206,2.888,-19.061,-17.462,1
0.8050503,5.499481,7.367557,-0.14905111,0.10293079,-0.071776666,3.201,-19.061,-17.462,1
1.0414777,6.0387754,6.157887,0.1695151,-0.056199603,0.021380283,3.514,-19.061,-17.781,1
1.3120226,5.79337,6.7989345,-0.13988814,-0.047036625,-0.20922135,3.514,-19.061,-18.084,1
0.7763199,5.9160724,6.325481,0.050396383,0.047036625,-0.1826487,3.823,-19.061,-18.084,1
0.17537527,6.187814,6.727707,-0.059864793,0.1469131,-0.17440203,4.154,-19.061,-18.084,1
-0.12928689,6.4188547,6.6403184,0.19242255,0.11362094,-0.19517145,4.504,-19.061,-18.084,1
0.022146367,6.7324953,6.5936313,0.22204952,0.08093964,-0.08277224,4.821,-19.061,-18.084,1
-0.664391,6.9048777,7.2807674,0.037873644,0.41050145,-0.007330383,4.821,-19.061,-18.084,1
0.65660983,6.180033,7.9547353,0.12308934,-0.050701816,0.15088372,5.171,-19.364,-17.784,1
0.62129533,5.7784057,5.5617304,0.49877146,-0.21685717,-0.058643065,5.474,-19.985,-17.12,1
-0.7015011,4.7979803,6.7923503,0.18661933,0.19150625,-0.025350908,5.474,-20.623,-16.777,1
-0.74399817,5.5671177,6.1004257,-0.093462385,0.22632557,0.18997909,5.474,-21.267,-16.401,1
-0.3298013,6.0681043,6.6480994,-0.38789943,0.055588737,-0.022296581,5.796,-21.267,-16.079,1
-0.338181,6.583456,5.6269727,0.09162979,-0.16371189,-0.27947086,5.796,-21.267,-16.079,1
-0.56563014,6.2362967,6.4230447,-0.062308256,-0.3912592,-0.19181168,5.796,-20.954,-16.445,1
0.48123455,6.777985,6.3763576,0.05467244,-0.7144069,-0.23273966,5.453,-20.954,-16.761,1
-0.28072014,6.752846,6.7306995,0.01282817,-0.32834008,-0.183565,4.797,-20.954,-16.761,1
-0.93014735,7.1155677,6.508039,0.16982053,0.024740042,-0.053450707,4.463,-20.637,-17.077,1
0.34715924,6.5487404,6.7450647,-0.008857546,-0.35705075,-0.13347405,4.463,-20.637,-17.077,1
0.23104046,5.5778913,8.1558485,-0.33750305,-0.16249016,-0.3594942,4.151,-20.637,-17.077,1
-0.10175357,5.207389,6.1584854,0.092240654,-0.2883284,-0.15118915,4.151,-20.637,-17.077,1
1.0564415,4.9548006,6.6606693,0.14874569,-0.44868052,-0.2171626,3.799,-20.318,-17.077,1
1.7465701,5.4049106,6.229713,-0.15302174,-0.43951756,-0.15699236,3.466,-20.318,-17.077,1
1.2162545,6.079477,6.1824274,-0.22266038,-0.016187929,-0.06719518,3.106,-20.318,-17.077,1
0.97862995,6.227917,6.6492968,-0.29229903,-0.017104227,-0.26816985,3.106,-19.967,-17.077,1
0.16519992,5.731719,7.353192,-0.23854288,0.26358834,-0.20647246,3.451,-19.296,-17.381,1
0.6452374,6.1926026,6.537368,0.06963864,-0.056505036,-0.1328632,3.778,-18.951,-17.707,1
0.31184477,6.1530986,7.1484876,0.12217305,-0.021380283,-0.105068825,4.434,-18.638,-17.707,1
-0.08259996,6.59423,6.4864907,0.19914207,0.10842858,0.01282817,4.434,-18.963,-17.707,1
-0.24181437,5.9262476,8.069656,-0.18325958,0.06383542,0.07422013,4.75,-19.314,-17.402,1
0.45070848,5.505467,6.2075663,0.38026363,-0.24984388,0.105068825,4.75,-19.314,-17.089,1
0.5470751,5.5964465,6.227917,0.1337795,-0.3726278,0.099265605,4.444,-19.642,-17.089,1
-0.11851298,5.016451,7.3178773,-0.02443461,-0.09101892,0.1423316,4.098,-19.989,-17.089,1
-0.28670564,5.3821654,6.607398,-0.03726278,-0.1160644,-0.023518313,3.788,-20.295,-17.089,1
-0.39025488,5.6646814,7.24665,-0.16462818,-0.005497787,-0.04795292,3.463,-20.295,-16.773,1
-0.2208651,6.095039,6.7013707,0.086437434,-0.06261369,-0.025961773,3.463,-20.295,-16.773,1
0.19991584,6.0465565,5.8759694,0.09101892,-0.118202426,0.16493362,3.463,-20.295,-16.773,1
0.29807812,6.201581,6.3362546,-0.19853121,0.051923547,0.14355333,2.752,-20.295,-16.464,1
1.0779893,6.4685345,6.26802,-0.17623462,-0.31795537,0.111177474,2.101,-20.295,-16.464,1
0.9768343,6.379949,7.2723875,-0.31856623,-0.10629055,-0.02565634,1.394,-19.613,-16.464,1
0.7188591,6.271013,7.253234,-0.12950343,-0.060170226,-0.09132435,0.706,-19.256,-16.464,1
0.8475474,5.3965306,8.634688,-0.49846604,-0.28313604,-0.35277468,0.706,-18.641,-17.115,1
-0.7140707,4.6818614,7.939771,-0.22602014,0.41599923,-0.13072516,0.706,-18.318,-17.767,1
0.46447513,4.7189717,7.2185183,0.2666427,0.11942416,0.016493361,1.364,-17.605,-18.099,1
1.0139444,3.8786068,7.351995,0.19211712,0.004276057,-0.21135938,1.676,-17.292,-18.099,1
1.4101849,4.1880574,7.037756,0.064446285,-0.12003502,-0.092240654,2.012,-17.292,-18.099,1
0.62728083,4.722563,7.679402,-0.07849618,0.002443461,-0.082161374,2.012,-17.616,-18.099,1
0.44951138,5.8065376,5.7616463,0.22602014,0.06414085,0.095294975,2.012,-17.616,-18.099,1
0.40761283,5.2618566,8.175002,-0.33078352,0.056199603,-0.047036625,2.339,-17.616,-18.099,1
0.19871874,5.5587378,6.579865,0.103847094,0.18967366,0.047036625,2.339,-17.616,-18.408,1
0.27952304,5.752668,6.6786256,0.0009162979,0.20433442,0.0983493,2.653,-17.616,-18.724,1
0.2837129,5.783194,7.767389,-0.13713925,0.23854288,0.14508049,2.96,-17.616,-18.412,1
-0.2801216,6.1626754,6.787562,0.22571471,0.28496864,0.20005837,3.266,-17.314,-18.412,1
-0.1604115,5.877765,8.040328,-0.040927973,0.26816985,0.35124752,3.266,-17.314,-18.412,1
0.66139823,5.355231,7.2723875,0.0842994,-0.08979719,0.29352075,3.579,-17.314,-18.106,1
0.4189853,4.793192,6.9904704,0.0125227375,0.0125227375,0.15790866,3.579,-17.633,-17.752,1
-0.4321534,4.3634324,7.789535,-0.044898596,0.14660765,0.10354166,3.259,-17.633,-17.752,1
-0.62009823,4.647744,6.9988503,0.04520403,0.17531833,0.25259277,3.259,-17.633,-17.752,1
0.093373865,4.8320975,8.462306,-0.41080686,0.18753563,0.25686884,3.259,-17.633,-17.752,1
-0.3549404,5.4264584,6.0423665,0.07788532,0.19058995,-0.16462818,3.259,-17.286,-18.107,1
-1.003769,5.1798553,7.0742674,-0.20311269,0.115453534,0.007941248,3.607,-16.645,-18.44,1
-0.3537433,5.6539073,7.2107368,-0.012217305,-0.22724187,-0.087964594,4.226,-16.32,-18.44,1
-0.21906945,5.6545057,7.7847466,0.051923547,-0.35124752,-0.17256944,4.226,-15.966,-18.759,1
-0.5967548,5.723339,7.463924,0.17806722,-0.34055737,-0.032986723,3.901,-15.966,-18.759,1
-0.18255788,6.010045,7.421427,0.1459968,-0.43585235,-0.045814894,3.23,-15.966,-19.064,1
-0.7990648,5.2037973,8.288128,-0.03604105,0.0015271631,-0.15241088,2.539,-15.966,-19.38,1
-0.016759412,4.8320975,6.8719573,0.15302174,0.06841691,0.03023783,2.539,-15.966,-20.043,1
1.2934675,4.5160627,7.290344,0.1518,-0.096516706,0.013133603,2.539,-16.281,-20.402,1
1.1282675,4.3514614,6.7881603,0.15760323,-0.07696902,-0.058948494,2.539,-16.636,-20.402,1
1.501763,4.7860093,7.2550297,-0.0888809,-0.2415972,-0.06505715,2.233,-16.955,-19.793,1
0.59495914,5.1289787,7.2298903,-0.109650314,0.04550946,-0.00580322,2.233,-16.955,-19.793,1
1.436521,5.637148,6.6606693,0.017715093,-0.18173242,-0.0070249503,2.233,-16.955,-19.793,1
0.6278794,5.3767786,7.7811556,-0.18417588,0.15363261,-0.06841691,2.233,-16.955,-19.793,1
0.07182605,5.7281275,6.517616,-0.012217305,0.39400807,-0.04734206,2.233,-16.615,-20.095,1
0.54767364,6.0956373,7.1131735,0.1863139,0.14446963,0.12186762,2.54,-16.29,-20.417,1
0.7278373,6.0363812,7.1622543,0.052534413,0.23396139,0.087659165,3.227,-16.29,-20.417,1
-0.14784196,6.1225724,6.7803793,0.25503623,0.41538838,0.124311075,3.555,-16.59,-20.417,1
-0.04070143,5.729325,8.295909,-0.106595986,-0.04062254,0.35613444,3.942,-16.929,-20.072,1
0.93613285,5.3342814,6.5966244,0.2489276,-0.37904188,0.26389378,3.942,-16.929,-20.072,1
-0.14664486,4.7907977,6.633734,0.05955936,-0.15607607,-0.089491755,3.616,-17.277,-20.072,1
-0.83138657,4.6220064,6.7067575,0.11575896,-0.09162979,-0.25870144,3.244,-17.935,-20.072,1
0.12090719,5.179257,7.1610575,-0.44532076,-0.25473082,-0.1872302,2.94,-17.935,-20.072,1
0.3226187,5.6407394,7.0156097,0.13775012,-0.5002986,-0.38973203,2.94,-17.935,-20.072,1
-0.25318682,5.607819,7.233482,-0.1423316,-0.29260445,-0.17531833,2.296,-17.607,-20.399,1
0.37828386,5.763442,6.859388,-0.076358154,-0.34025195,-0.30787608,1.969,-17.286,-20.771,1
0.62608373,5.9011087,6.8982935,-0.12003502,-0.33841935,-0.24678956,1.301,-17.286,-20.771,1
0.04309563,6.049549,6.9719152,-0.1432479,0.0030543262,-0.18387043,1,-16.947,-20.771,1
0.06404489,6.101623,7.5920134,-0.081855945,-0.05681047,-0.26511553,0.7,-16.642,-20.771,1
0.18016368,6.1387334,7.2143283,0.056505036,-0.28710666,-0.32559118,1.011,-16.337,-21.089,1
-0.029927522,5.0308166,8.467094,-0.28496864,-0.13194689,-0.21594086,1.011,-16.337,-21.403,1
-0.12210429,4.970961,6.5762734,0.16707164,0.0983493,0.090713486,1.318,-16.007,-21.403,1
0.2124854,4.220379,8.117541,-0.10751228,0.05955936,-0.059864793,1.663,-16.007,-21.403,1
0.3842694,4.3394904,7.144298,0.1704314,-0.16187929,-0.08979719,1.983,-15.705,-21.403,1
0.79128367,4.5016975,7.2867527,0.013439035,-0.19547687,-0.050396383,1.983,-15.705,-21.403,1
0.3321955,5.0763063,7.029376,0.034208454,-0.103847094,0.030543262,1.983,-16.009,-21.084,1
0.39324763,5.12838,7.0826473,0.019242255,-0.21410827,0.0852157,1.983,-16.009,-21.084,1
1.0073603,5.480926,7.067683,0.13775012,-0.3662137,0.060170226,1.364,-16.314,-21.084,1
1.2761095,5.777209,6.5247984,0.20891592,-0.37782016,0.13225232,0.975,-16.635,-20.741,1
1.5394717,6.229713,6.385336,0.118507855,-0.1151481,0.09285152,-0.17,-16.635,-20.429,1
1.0007763,6.295553,6.9246297,-0.10567969,0.32436943,0.24281894,-0.901,-16.947,-19.66,1
1.1013328,6.521207,6.9701195,0.027183503,0.38026363,0.21288654,-0.901,-16.947,-19.66,1
1.3054385,6.5487404,6.8528037,-0.031154128,0.44043383,0.18906279,-0.505,-16.627,-20.014,1
0.43873745,5.4282537,7.700351,-0.36743546,0.852157,0.3323107,0.663,-16.627,-20.332,1
0.8882488,4.8644195,7.9631147,-0.14874569,0.29749137,0.34208453,2.081,-15.956,-20.632,1
0.47345337,4.9015293,6.755839,0.13683382,0.06383542,0.048258353,3.189,-15.629,-20.933,1
-0.38486794,4.2754455,7.2430587,-0.027488936,0.11942416,0.03604105,3.517,-15.629,-20.933,1
-0.8912416,4.3263226,6.9306154,0.10048734,0.16737708,0.063224554,3.871,-15.629,-20.933,1
-1.0971429,4.6938324,7.271789,-0.2950479,0.33078352,0.06963864,4.173,-15.629,-20.629,1
-0.2741361,5.254674,7.4986396,-0.06872234,-0.07971791,-0.02107485,4.512,-15.315,-20.629,1
-0.6099229,5.4085016,6.95755,-0.055283304,0.028405234,0.059864793,4.512,-14.976,-20.318,1
-0.2825158,5.1726727,7.350199,-0.16371189,-0.063224554,0.0580322,4.512,-14.656,-20.318,1
0.4405331,5.683835,6.691794,0.062002823,-0.42088616,-0.10140363,4.512,-14.355,-20.642,1
0.09756372,5.5282116,7.593809,-0.21685717,-0.36254853,-0.09712757,4.176,-14.051,-20.642,1
-0.09696517,6.081272,7.671621,0.17501289,-0.4801401,-0.1142318,3.474,-13.739,-20.642,1
0.7787141,6.615179,7.630321,0.40133846,-0.77182823,-0.18173242,2.804,-13.739,-20.642,1
0.36870706,5.5485625,8.617929,-0.010079277,-0.13255776,-0.24037547,1.641,-14.082,-20.642,1
-0.18555063,4.931457,7.3645644,0.21380283,0.26511553,0.2434298,0.999,-14.407,-20.642,1
0.736217,4.72376,5.834071,0.38087448,0.28069258,0.45478916,0.688,-14.767,-19.929,1
1.1779473,4.1132383,6.9318123,-0.11759156,0.32406402,0.0290161,1,-15.083,-19.601,1
1.3102269,4.2024226,7.53156,-0.18906279,0.28008172,-0.035430185,1.657,-15.083,-19.601,1
1.4407109,4.856638,7.5387425,-0.16707164,0.08368854,0.028405234,1.982,-14.758,-19.601,1
0.6584055,5.2875943,7.417835,-0.052839845,0.2611449,0.087964594,2.59,-14.457,-19.601,1
0.6386533,5.2899885,7.1832037,-0.086132,0.2171626,0.07696902,2.891,-14.138,-19.601,1
0.64583594,5.033809,7.6123643,-0.09621128,0.1386664,0.07238753,3.245,-13.829,-19.601,1
0.35314476,5.419874,6.818088,-0.018936822,0.28344148,-0.0015271631,3.585,-13.829,-19.601,1
0.45370123,5.6844335,7.068282,-0.03481932,0.01160644,-0.036957346,3.919,-13.528,-19.601,1
0.760159,5.9489927,7.61835,0.013744468,-0.007941248,0.05681047,4.231,-13.528,-19.264,1
0.57281274,6.0327897,7.3753386,0.20250183,0.17470746,0.050701816,4.554,-13.528,-19.264,1
0.16938977,5.619191,8.100183,0.1020145,0.2941316,0.087964594,4.887,-13.528,-18.954,1
0.7649474,5.3342814,6.8863225,0.36377025,-0.18112154,0.10445796,5.227,-13.528,-18.954,1
0.81343,5.076905,6.6002154,0.17806722,-0.24098633,-0.1957823,5.532,-14.213,-18.954,1
-0.15143326,4.3059716,7.269395,0.0009162979,-0.11575896,-0.25992316,5.532,-14.524,-18.652,1
-0.37469256,4.6363716,6.659472,0.13469578,-0.1863139,-0.1966986,5.532,-14.845,-18.322,1
-0.39384618,5.254674,7.510012,-0.22418754,-0.13255776,-0.24465153,5.532,-14.845,-18.322,1
0.11133038,5.6640825,7.557896,-0.13194689,-0.34269542,-0.46609017,5.532,-14.845,-18.322,1
-0.8391677,5.3606176,6.4260373,-0.0012217305,-0.1685988,-0.473726,5.532,-14.14,-18.322,1
-0.43394905,5.33488,6.927623,-0.081855945,-0.36132678,-0.37323865,5.838,-13.825,-18.659,1
-0.5835867,5.779603,6.8581905,-0.022602014,-0.34391713,-0.38881573,5.838,-13.186,-19.297,1
-0.13347675,6.059126,7.5255747,-0.061086524,-0.3231477,-0.2489276,5.215,-12.512,-19.297,1
-0.3513491,5.964555,6.771401,0.13836098,-0.24587326,-0.25809056,4.913,-12.17,-19.604,1
0.219668,6.293758,6.9946604,0.13622294,-0.40103304,-0.3109304,4.913,-12.17,-19.252,1
0.4770447,6.1285577,7.3807254,0.14446963,-0.7305948,-0.44806966,4.595,-12.17,-19.252,1
-0.28670564,5.181651,7.844003,0.03848451,-0.43157628,-0.27947086,3.947,-12.17,-19.573,1
0.41060558,5.6646814,6.8330517,0.22052236,-0.1957823,0.13958271,3.294,-12.17,-19.573,1
0.065242,5.04578,7.031172,0.08368854,0.24617869,0.14538592,2.99,-12.17,-19.573,1
0.16699557,4.7925935,6.2500634,0.20738874,0.2764165,0.027183503,2.99,-12.544,-19.573,1
1.0546459,4.9135003,7.4244194,-0.042760566,-0.079107046,0.14996742,3.302,-12.881,-19.573,1
0.6739678,5.2965727,6.9120603,-0.11453723,0.050396383,0.09010262,3.608,-13.227,-19.218,1
0.6715736,5.6461263,7.33763,-0.27855456,0.19914207,0.054061573,3.915,-13.227,-19.218,1
0.51235914,5.233725,7.047931,-0.11911872,0.21471913,0.033292156,4.278,-12.925,-19.218,1
0.23104046,5.3145294,6.623559,-0.065973446,0.16676621,0.003970624,4.962,-12.609,-19.218,1
-0.11252748,5.6724625,6.712743,-0.13133603,0.14844026,0.052839845,5.307,-12.609,-19.541,1
-0.055066638,5.9998693,6.989872,-0.098043874,0.1001819,0.17989981,5.628,-12.304,-19.541,1
-0.005985504,5.727529,7.9828672,-0.13439035,0.13408493,0.24617869,5.949,-12.304,-19.541,1
0.25977087,6.1746464,7.0449386,0.22174409,0.19242255,0.25320363,6.266,-12.304,-19.541,1
0.39145198,5.931635,7.9307933,0.19486602,0.25045475,0.2828306,6.575,-12.637,-19.541,1
0.99060094,5.3678,7.342418,0.28680122,0.11026118,0.17837265,6.575,-13.348,-19.541,1
0.98222125,5.309142,6.0250087,0.2764165,-0.18417588,-0.053450707,6.939,-14.506,-18.885,1
0.04369418,5.133767,6.2512608,0.07360926,-0.077579886,-0.02687807,7.27,-15.567,-18.518,1
-0.12569559,5.310938,6.724714,-0.10751228,-0.12950343,-0.089491755,7.577,-16.241,-18.203,1
-1.1354501,5.213374,7.3178773,-0.17165314,0.15118915,-0.007941248,7.577,-16.241,-18.203,1
-0.93852705,5.5300074,7.3466077,-0.23457226,0.22052236,0.17806722,7.882,-16.241,-18.203,1
-0.15562311,5.7478795,6.8947024,-0.10934488,0.09621128,0.10995574,8.187,-16.241,-18.528,1
-0.40940848,5.527613,6.6229606,-0.11942416,0.0729984,0.12156218,8.515,-15.94,-18.528,1
-0.17058687,5.7562594,6.8198833,-0.124005646,-0.183565,0.061391957,8.515,-15.94,-18.205,1
0.020949265,6.0208187,6.869563,0.008552114,-0.3680463,-0.021991149,8.515,-15.94,-18.205,1
0.29209262,6.0118403,7.3005195,0.05497787,-0.42455134,-0.07391469,7.852,-15.94,-18.553,1
0.7158663,6.1979895,7.8290396,0.20769419,-0.30695978,-0.1441642,6.718,-15.94,-18.553,1
-0.34596214,5.66109,6.157288,0.5271767,0.2312125,-0.03848451,6.044,-16.249,-18.887,1
0.5638345,5.751471,7.9583263,-0.16035213,0.24098633,0.087659165,5.732,-16.943,-18.887,1
0.21308395,5.559336,6.6480994,0.39095375,0.19058995,-0.08032878,5.732,-17.57,-18.257,1
0.7170634,5.207389,6.369175,0.040011674,0.13408493,-0.04428773,6.044,-17.951,-17.541,1
1.1186907,5.5258174,6.443994,-0.033292156,-0.009773844,-0.14172074,6.044,-18.276,-17.221,1
0.9648633,5.6922145,7.08564,-0.18600847,-0.21655174,-0.03023783,6.391,-18.577,-16.902,1
0.770933,6.1926026,6.2045736,-0.10048734,-0.02565634,-0.015271631,6.391,-18.252,-16.902,1
0.8936358,5.9142766,7.4830775,-0.3735441,-0.036957346,-0.2666427,6.057,-17.938,-17.257,1
0.5566519,5.7478795,6.587646,-0.22235495,-0.1740966,-0.30665436,6.057,-17.276,-17.599,1
0.4177882,5.769428,7.00304,-0.17440203,-0.14019357,-0.29046643,6.057,-16.636,-17.903,1
-0.28491,5.7095723,7.5944076,-0.012217305,0.14080444,-0.1863139,6.372,-16.267,-17.903,1
-0.4285621,6.073491,6.9838862,0.17165314,0.22876903,-0.061086524,6.726,-15.966,-17.903,1
-0.24720132,6.2458735,7.4776907,0.17562376,0.14782938,0.025961773,7.356,-16.316,-17.903,1
-0.08259996,5.5060654,8.085219,0.06261369,-0.03726278,0.19333886,7.356,-16.973,-17.903,1
-0.2908955,5.2319293,5.9944825,0.40683624,-0.04642576,0.12980886,7.656,-17.611,-17.555,1
-0.29628247,5.1762643,6.289568,0.14446963,-0.06811147,0.16523905,7.344,-18.301,-17.555,1
0.0035913025,5.1607018,6.7666125,-0.021991149,-0.06169739,0.16707164,6.576,-18.63,-17.555,1
0.2908955,5.266645,7.1861963,-0.1133155,-0.14202617,-0.014966198,6.265,-18.965,-17.555,1
0.022744916,5.443816,7.2167225,-0.09040806,-0.06963864,-0.023518313,6.265,-19.288,-17.555,1
0.2136825,5.645528,6.736685,0.083383106,-0.051923547,-0.10323623,5.96,-19.288,-17.555,1
-0.18076223,5.8005524,6.401497,0.029626964,0.020463986,-0.2443461,5.96,-19.288,-17.874,1
-0.87927055,5.6551046,7.2113357,-0.267559,0.07391469,-0.2415972,5.96,-19.288,-17.874,1
-0.6859388,5.897517,6.3422403,-0.0870483,-0.035430185,-0.21624629,6.265,-19.288,-17.874,1
-0.142455,6.0531406,7.4028716,-0.30940324,-0.28344148,-0.1695151,6.567,-18.563,-17.874,1
-0.46208093,5.9968767,6.193201,-0.013133603,-0.39370266,-0.22571471,6.567,-18.251,-18.183,1
0.7930793,5.831078,7.5243773,-0.12950343,-0.60139686,-0.13561209,5.917,-17.619,-18.498,1
0.2172738,6.2740054,6.4206505,0.30879238,-0.23487769,-0.34391713,5.229,-17.619,-18.498,1
0.81163436,6.2985463,8.148665,-0.1328632,-0.42638394,-0.29657507,4.527,-17.619,-18.498,1
-0.30346507,6.1129956,6.7348895,0.17287487,-0.1255328,-0.14813483,4.223,-17.619,-18.498,1
-0.39743748,5.4402246,7.125743,0.14874569,-0.08857546,-0.038789943,3.916,-17.619,-18.498,1
-0.4357447,5.1247888,6.927024,-0.27214047,0.24556783,0.101098195,3.916,-17.919,-18.498,1
-0.07062895,5.115212,6.692991,0.09468412,0.33567044,0.17470746,3.916,-17.919,-18.498,1
0.46986207,4.88058,7.3286514,-0.05100725,-0.1328632,0.12339478,4.277,-17.919,-18.498,1
0.44472298,4.831499,7.192182,-0.07513642,-0.2883284,-0.06658431,4.277,-17.919,-18.498,1
0.1412579,5.317522,7.056311,0.02443461,-0.043982297,0.03604105,4.277,-17.619,-18.498,1
0.7374141,5.789778,7.105392,-0.036651913,-0.14080444,0.058337633,3.654,-17.619,-18.498,1
0.664391,5.6658783,7.2286935,0.12064589,-0.008857546,0.020463986,3.654,-17.619,-18.498,1
0.7140707,6.206968,6.2805896,0.13469578,0.050396383,0.16890424,3.654,-17.619,-18.498,1
0.08259996,6.0902505,7.020398,-0.1441642,0.44990227,0.25350907,3.654,-17.619,-18.498,1
0.2160767,6.3380504,6.4302273,0.067500606,0.40500367,0.33383787,3.968,-17.941,-18.142,1
0.59735334,6.3260794,6.70556,0.20586158,0.2828306,0.23457226,4.295,-17.941,-17.837,1
0.33758244,6.4978633,8.069656,-0.17562376,0.3436117,0.24556783,4.951,-18.241,-17.837,1
0.25079262,5.707178,7.387908,0.110872045,0.14508049,0.3371976,5.273,-18.545,-17.837,1
0.56982,5.2678423,6.2704144,0.20280726,-0.010079277,0.21960606,5.273,-18.545,-17.515,1
-0.38606504,4.7644615,6.566098,0.06047566,0.15332718,0.05375614,5.273,-19.201,-17.515,1
-0.3513491,4.83928,6.989872,-0.08155051,-0.0015271631,0.12339478,5.273,-19.511,-17.173,1
-0.60573304,5.3887496,7.006033,-0.2501493,0.10293079,0.13103059,5.273,-19.818,-17.173,1
-0.092176765,5.697003,7.5950065,-0.3145956,-0.013744468,0.07086037,5.273,-19.494,-16.844,1
-0.46208093,5.631162,6.849811,-0.10415252,0.09010262,0.050396383,5.273,-19.143,-16.844,1
-0.30047232,5.580884,7.183802,-0.10415252,-0.07238753,0.017715093,5.583,-18.801,-16.844,1
0.11971009,5.94181,7.0646906,0.03145956,-0.24465153,-0.050396383,5.583,-18.801,-17.19,1
0.20171149,5.981913,7.2622123,0.1282817,-0.36254853,-0.12034045,5.232,-18.801,-17.509,1
-0.022744916,6.214749,6.7600284,0.26297748,-0.36560285,-0.17684549,4.904,-18.801,-17.509,1
-0.08798691,5.593454,8.306085,-0.06658431,-0.3277292,-0.25350907,4.231,-19.168,-17.509,1
0.22026655,5.4940944,7.621941,0.038789943,-0.12644911,0.03604105,3.918,-19.168,-17.192,1
0.57041854,5.065532,6.9665284,0.071776666,0.062308256,-0.051618114,3.584,-19.485,-16.851,1
0.6835446,5.0302176,6.317101,0.045814894,0.014049901,-0.06780604,3.584,-19.485,-16.531,1
1.1683705,4.6722846,7.189788,-0.54244834,0.056199603,0.10842858,3.584,-19.485,-16.531,1
1.5855601,4.546589,7.9194207,-0.2434298,-0.25961772,0.047647487,3.584,-19.123,-16.885,1
0.7721301,4.549582,7.3885064,-0.07574729,0.04886922,-0.004581489,3.277,-18.426,-17.25,1
0.6332663,4.815338,7.521983,-0.008552114,0.06994407,0.08032878,3.277,-18.122,-17.564,1
1.3239936,5.313332,6.7731967,0.2593123,-0.048563786,0.041233405,3.277,-17.799,-17.564,1
1.4927847,5.0691237,7.7320743,-0.1572978,-0.2846632,0.004886922,2.626,-17.799,-17.564,1
1.0229226,5.3660045,6.851008,0.12644911,-0.041233405,-0.049480084,2.238,-17.799,-17.564,1
0.98341835,5.513248,6.9078703,0.058643065,0.037873644,-0.10323623,1.901,-17.799,-17.564,1
0.93014735,5.4887075,7.149685,-0.028405234,0.032070424,-0.048258353,1.591,-17.799,-17.254,1
0.83138657,5.910087,6.7318964,0.099571034,0.15699236,0.017104227,1.591,-17.799,-16.923,1
0.82599956,6.113594,6.953959,0.14844026,0.19150625,0.01863139,1.94,-18.109,-16.923,1
0.694917,6.381146,7.380127,0.17012598,0.24495697,0.048258353,2.308,-18.466,-16.923,1
0.6817489,6.495469,7.21373,0.27152961,0.13958271,0.26542094,2.615,-19.093,-16.613,1
0.94810385,5.8544216,6.811504,0.35002577,0.052839845,0.21471913,2.928,-19.747,-16.239,1
0.908001,5.6946087,5.98311,0.2779437,0.04734206,-0.032986723,2.928,-20.478,-15.536,1
0.78290397,5.781997,6.126762,0.13988814,0.01160644,-0.10598512,2.928,-21.11,-14.794,1
0.7733272,5.8723783,6.693589,0.021991149,-0.12156218,-0.073303826,2.928,-21.434,-14.465,1
0.49320555,5.6066217,6.5325794,0.040317107,-0.13836098,-0.19456059,2.621,-21.748,-14.465,1
0.31423897,5.650316,6.439804,-0.022907447,-0.1966986,-0.23884831,2.294,-21.748,-14.105,1
0.30585927,5.8885393,7.1365166,-0.23976462,-0.17012598,-0.26145032,1.986,-21.748,-14.105,1
0.6015432,6.0836663,6.7761893,-0.14263703,-0.22296582,-0.3286455,1.667,-21.748,-14.44,1
0.362123,5.9717374,6.612785,-0.11209377,-0.27458394,-0.4129449,1.667,-21.446,-15.107,1
0.06703765,5.761048,6.6385226,-0.10476339,-0.2950479,-0.3894266,1.667,-21.446,-15.428,1
0.22445641,6.0567317,6.579266,-0.1432479,-0.28680122,-0.35277468,1.667,-21.139,-15.428,1
0.032920275,6.43741,6.4487824,-0.047036625,-0.24129178,-0.30390546,1.667,-20.785,-15.783,1
0.32621,6.4583592,6.603807,0.004886922,-0.2950479,-0.29932398,1.667,-20.475,-16.181,1
0.16220717,6.4870896,6.70556,0.14172074,-0.23579398,-0.37812558,1.364,-20.475,-16.488,1
0.8331822,6.5241995,7.2083426,0.022602014,-0.54244834,-0.34880406,1.052,-20.475,-16.488,1
-0.31244332,6.0280013,6.593033,0.06719518,-0.36651915,-0.18203785,0.389,-20.475,-16.488,1
0.49320555,5.8095303,6.9689226,0.014660766,-0.32345316,-0.03268129,-0.288,-20.777,-16.488,1
0.40282443,5.7005944,6.794146,0.092240654,-0.022296581,-0.024129177,-0.636,-20.777,-16.488,1
1.0079589,5.3115363,6.891111,0.08307768,-0.038789943,0,-0.939,-20.777,-16.488,1
0.9139865,5.145738,7.3232646,0.028710667,0.037873644,0.011301007,-0.939,-20.777,-16.488,1
0.6464345,5.33907,6.8198833,0.08552113,0.13133603,0.061086524,-0.939,-20.777,-16.787,1
0.6039374,6.0064535,6.3823433,0.09621128,0.26939157,0.12308934,-0.939,-20.777,-16.787,1
0.53570265,5.977723,6.928221,-0.19730948,0.3885103,0.2657264,-0.297,-20.777,-17.097,1
0.58657944,6.022016,6.7187285,0.036651913,0.37751472,0.32162055,0.349,-20.777,-17.784,1
0.3645172,6.223129,6.2327056,0.027183503,0.4569272,0.27397305,1.045,-20.472,-18.443,1
0.29807812,6.3524156,6.5577183,-0.10598512,0.40378192,0.27885997,1.792,-20.164,-18.78,1
0.1933318,6.367379,7.216124,0.07727446,0.5161811,0.3191771,2.447,-20.164,-18.78,1
-0.093373865,7.0156097,6.0130377,0.5143485,0.6743952,0.44135013,3.247,-19.854,-18.78,1
-0.7284359,7.192182,6.2967505,0.063224554,0.71776664,0.38453966,4.319,-20.533,-18.394,1
-0.34835634,6.7881603,7.2987237,-0.25809056,0.3744604,0.45814893,5.371,-21.157,-17.756,1
0.18974048,5.8963203,6.962937,0.050396383,0.18417588,0.2938262,6.031,-21.157,-17.756,1
0.008978256,5.4432178,6.239888,-0.008552114,0.0106901415,0.12767084,6.031,-21.157,-17.756,1
-0.6051345,5.33488,6.199785,-0.046120327,0.09101892,0.22143865,6.407,-21.157,-17.404,1
-0.70509243,5.4683566,6.8563952,-0.1731803,0.004276057,0.05955936,6.724,-21.157,-17.404,1
-0.91697925,5.510854,6.8468184,-0.008857546,-0.052839845,0.009773844,6.724,-21.157,-17.051,1
-0.36750996,6.1112,6.707356,-0.030543262,-0.19761491,0.2049453,6.724,-21.157,-17.051,1
-0.35793316,5.7023897,7.330447,-0.29993483,0.03176499,0.06841691,6.724,-21.157,-17.051,1
-1.0869676,5.679645,6.9012866,-0.35918877,0.59040123,0.21899518,6.724,-21.157,-17.353,1
-0.8535329,5.631761,6.7684083,-0.3359759,0.3115413,0.22510384,7.035,-20.538,-17.353,1
0.02813187,5.6108117,6.669049,-0.25228736,-0.2883284,0.11728613,7.699,-20.237,-17.66,1
-0.18315643,5.298967,7.4310036,-0.40408736,0.08093964,0.23060162,7.699,-19.92,-17.66,1
-0.14185645,5.5802855,7.5614877,-0.028710667,-0.13316862,0.19272798,7.699,-19.256,-17.997,1
-0.032920275,5.931036,7.2885485,0.10140363,-0.34666604,0.0009162979,7.052,-19.256,-18.36,1
-0.2789245,5.309741,9.070433,-0.0852157,-0.44012842,-0.0720821,6.724,-19.256,-18.36,1
-1.0378864,5.2061915,6.628946,0.40133846,0.06047566,0.33200526,6.408,-19.975,-18.034,1
0.5883751,5.145139,7.465719,0.16340645,-0.2284636,0.3924809,5.747,-20.626,-17.706,1
-0.094570965,4.5962687,7.4322004,0.03726278,0.22235495,0.18967366,5.065,-21.612,-17.401,1
0.30346507,4.607641,6.704962,0.14752395,0.28863382,0.45081854,4.702,-21.942,-17.089,1
0.7380127,4.4274774,7.885902,0.00061086525,0.37659842,0.55955255,4.702,-22.651,-16.761,1
1.1797429,4.6016555,7.7757688,0.1459968,0.2098322,0.5348125,4.054,-22.978,-16.346,1
0.35194764,4.857237,7.177817,-0.16249016,0.59773165,0.52198434,3.75,-23.31,-16.04,1
0.16998832,4.9081135,7.6464815,-0.10476339,0.4279111,0.6930266,3.399,-23.31,-15.719,1
0.30286652,4.83928,7.9475527,-0.160963,0.42088616,0.7761043,2.716,-23.31,-15.719,1
0.39145198,4.759673,7.0132155,0.12370021,0.43768495,0.84482664,2.101,-23.002,-16.04,1
0.27832595,4.6321816,7.201759,-0.013439035,0.6221663,0.8698721,1.736,-23.002,-16.04,1
0.8595184,5.0942626,7.3843164,-0.01863139,0.60139686,0.95081174,1.388,-23.002,-16.04,1
1.0414777,5.5180364,7.475895,0.129198,0.5109888,0.8915578,1.051,-23.002,-16.04,1
1.0265139,5.5844755,7.415441,0.18448131,0.52381694,0.81489426,0.703,-23.002,-16.04,1
0.06344634,5.563526,7.429806,0.2489276,0.86620694,0.77549344,0.382,-23.631,-15.716,1
0.4333505,5.4899044,7.717709,0.16187929,0.56321776,0.8915578,0.08,-23.951,-15.716,1
1.3096284,5.46297,7.1263413,0.40225476,0.32498032,0.7415904,-0.219,-24.259,-15.026,1
0.7230489,5.5509567,6.2141504,0.2846632,0.44165558,0.47739118,-0.848,-24.934,-14.663,1
0.9576807,5.466561,6.8324533,0.05497787,0.27366763,0.5519168,-1.167,-25.588,-14.326,1
1.0336965,5.6431336,6.8210807,-0.009162978,0.22815818,0.5384777,-1.51,-25.947,-14.326,1
0.5614403,5.6245785,7.012018,-0.008246681,0.24465153,0.33292156,-2.159,-25.947,-14.326,1
0.48243165,5.775413,6.712743,0.04062254,0.22296582,0.2950479,-2.462,-25.947,-14.326,1
0.45669398,5.5431757,7.0287776,-0.100792766,0.1600467,0.3100141,-2.462,-25.947,-14.326,1
0.24660277,5.3127337,6.919243,-0.005192355,0.035430185,0.33169982,-2.816,-25.947,-14.326,1
-0.30406362,5.445612,7.0395517,-0.077579886,0.41325033,0.35460728,-3.143,-25.575,-14.649,1
-0.22505496,5.5802855,6.9988503,-0.13805555,0.5934556,0.2556471,-3.143,-25.575,-14.649,1
-0.30107087,5.553351,7.162853,-0.17348573,0.4700608,0.26419923,-2.83,-24.873,-15.306,1
-0.3196259,5.2624555,6.9144545,-0.16737708,0.36896262,0.33414328,-2.223,-24.569,-15.612,1
-0.94331545,5.524022,6.5858502,0.10873401,0.3036,0.39828414,-1.908,-24.221,-15.943,1
-0.11492168,5.559336,7.7230964,-0.29138273,0.21197024,0.47128254,-1.908,-23.544,-15.943,1
-0.22924481,5.7628436,7.0904284,0.033292156,0.14935656,0.37201694,-2.233,-23.223,-16.259,1
-0.19512744,5.6898203,7.443573,0.11209377,-0.046731193,0.31856623,-2.561,-22.908,-16.259,1
0.0664391,5.9867015,6.967127,0.36377025,-0.1704314,0.28680122,-3.279,-22.908,-16.259,1
0.15562311,5.9968767,7.8344264,0.14569137,-0.06352998,0.17898351,-4.034,-22.908,-15.959,1
-0.362123,5.7502737,5.9878983,0.59437186,0.25228736,0.47036624,-4.376,-23.211,-15.249,1
0.15143326,5.993285,7.1089835,0.032070424,0.2864958,0.6273586,-5.05,-23.899,-14.549,1
0.15981296,5.9106855,7.433996,0.1957823,0.46395215,0.3399465,-5.05,-23.899,-14.247,1
0.16340427,5.306748,7.3166804,0.110872045,0.63163465,0.36254853,-5.358,-23.899,-14.247,1
0.61650693,4.823119,6.4661403,0.12614368,0.4016439,0.52106804,-5.358,-23.899,-14.247,1
0.83378077,4.9278655,6.9826894,-0.08124508,0.48349985,0.8155051,-5.358,-23.899,-14.247,1
1.0348936,5.327099,7.33763,-0.019242255,0.4877759,0.82741696,-5.358,-23.512,-14.247,1
1.3210008,5.74369,6.8563952,0.14477506,0.24098633,0.64568454,-5.709,-23.17,-14.247,1
0.9259575,5.795764,6.5625067,0.070554934,0.5018258,0.6618725,-6.367,-22.853,-14.247,1
1.4556746,6.030994,7.08983,0.043982297,0.21868975,0.6420194,-6.684,-22.532,-14.247,1
1.4790181,6.05733,6.123171,0.18142697,0.31520647,0.52748215,-6.991,-22.232,-14.247,1
2.1589713,6.5032506,5.889736,0.05222898,0.3555236,0.40225476,-7.302,-22.232,-13.946,1
1.7729063,6.7630215,6.323685,-0.07544186,0.4352415,0.34116822,-7.302,-22.232,-13.946,1
1.3359646,6.825869,6.6002154,-0.115453534,0.6554584,0.36865717,-7.302,-21.537,-13.946,1
0.87687635,6.8222775,6.4882865,-0.12217305,0.6719518,0.39736784,-6.954,-21.194,-14.666,1
0.7493851,5.8520274,7.453748,-0.35216382,0.59040123,0.2779437,-6.315,-20.492,-15.371,1
1.0049661,5.620987,7.252037,-0.044898596,0.16126843,0.10445796,-5.317,-19.831,-15.704,1
0.4321534,5.385158,6.691195,0.09132435,0.057726767,-0.1432479,-4.98,-19.517,-15.704,1
0.09756372,5.0679264,6.9946604,0.1282817,0.029321533,0.010995574,-4.646,-19.517,-15.704,1
-0.14305355,5.33907,6.869563,0.048258353,-0.07696902,-0.124005646,-4.336,-19.517,-15.051,1
-0.83976626,5.0822916,7.04434,-0.04886922,0.07941248,-0.30848694,-3.996,-19.831,-15.051,1
-1.2258313,5.158906,7.1329255,-0.116675265,0.021380283,-0.17134771,-3.996,-19.831,-15.051,1
-0.95468795,5.4342394,7.463924,-0.15882497,0.028099801,0.15790866,-3.656,-19.831,-15.051,1
-0.32800564,5.8771667,6.8222775,-0.00030543262,-0.040927973,0.15363261,-3.656,-19.511,-14.709,1
-0.7218518,5.9507885,6.895301,0.00030543262,0.12858713,0.057726767,-3.656,-19.511,-14.709,1
-0.62249243,5.783793,6.8306575,-0.030848695,0.15515977,0.055283304,-3.656,-19.21,-14.709,1
0.24361002,5.951387,6.5684924,-0.02565634,-0.08582657,0.071776666,-3.341,-19.21,-14.408,1
-0.11791443,5.8909335,6.477513,-0.047036625,-0.30207285,0.017104227,-3.341,-19.21,-14.408,1
-0.18555063,6.43322,7.0994067,-0.014049901,0.11209377,0.04062254,-3.341,-19.21,-14.408,1
-0.48841715,6.3248825,7.102998,-0.046731193,-0.00061086525,-0.115453534,-3.668,-19.21,-14.103,1
-0.24301147,5.66528,7.653664,-0.021991149,-0.3924809,-0.1432479,-3.668,-18.905,-14.103,1
-0.38606504,6.055535,6.175245,0.2657264,-0.21563543,-0.022602014,-3.668,-18.905,-14.103,1
0.27114335,5.403115,7.2969284,0.10476339,-0.32284227,-0.089186326,-4.022,-18.905,-13.459,1
-0.16879122,5.327099,7.037756,0.06872234,0.13897185,-0.063224554,-4.35,-19.209,-13.101,1
-0.12868834,5.294777,6.627749,0.12705997,0.33444872,0.24617869,-4.655,-19.209,-12.393,1
0.60693014,5.511452,6.3446345,0.013744468,0.16554448,0.2519819,-4.655,-19.535,-12.393,1
0.9864111,5.333084,7.2322845,-0.16401732,-0.016493361,0.042760566,-4.655,-19.535,-12.393,1
0.83497787,5.3163247,7.113772,-0.26206118,-0.099265605,-0.16371189,-4.655,-19.535,-12.393,1
0.60094464,5.3743844,7.0766616,-0.24251351,-0.03970624,-0.12064589,-4.655,-19.198,-13.034,1
0.7146692,5.517438,7.2113357,-0.12217305,-0.0693332,-0.13164146,-4.655,-18.861,-13.034,1
0.4417302,5.5922565,7.3106947,-0.089186326,-0.054061573,-0.24465153,-4.655,-18.554,-13.345,1
-0.11791443,5.4803276,6.7989345,-0.030543262,0.108123146,-0.17745635,-4.655,-18.554,-13.345,1
0.18195933,5.913678,7.3406224,0.063224554,-0.15424347,-0.070249505,-4.655,-18.554,-13.345,1
-0.109534726,6.145317,7.253833,0.16371189,0.17898351,-0.023518313,-4.351,-18.554,-13.345,1
-0.39145198,6.2368956,6.770204,0.21227567,0.17134771,0.099265605,-4.351,-18.554,-13.345,1
-0.41000703,6.205771,7.1586633,0.23640485,0.16676621,0.22571471,-4.046,-18.867,-13.018,1
0.64463884,5.8280854,7.6351094,0.14905111,-0.19975294,0.3036,-4.046,-19.175,-11.921,1
0.142455,5.4258595,6.0651116,0.22999077,0.2452624,0.16768251,-4.367,-19.175,-11.921,1
-0.04129998,5.2899885,5.6706667,0.2171626,-0.017715093,-0.02687807,-4.722,-19.488,-11.921,1
-0.30286652,5.3103395,6.7522473,-0.099265605,-0.045814894,-0.086132,-4.722,-19.488,-11.253,1
-0.7182605,5.312135,6.71813,-0.042760566,-0.065973446,-0.061086524,-5.046,-19.79,-10.493,1
-0.320823,5.773019,6.8929067,-0.01038471,-0.3136793,-0.038179077,-5.38,-19.79,-10.157,1
-0.51714754,5.713164,7.343615,-0.05467244,-0.20830505,-0.19700404,-5.757,-19.79,-10.157,1
-0.5530606,5.9142766,6.669647,0.030848695,-0.15821409,-0.070249505,-6.109,-19.79,-10.157,1
-0.25258827,6.005855,6.6947865,-0.09621128,0.04642576,0.014966198,-6.41,-19.79,-9.851,1
-0.54168814,5.9843073,6.6103907,-0.24465153,0.2874121,0.12736541,-6.41,-19.79,-9.851,1
-0.28670564,5.9507885,7.0808516,-0.28405234,0.18784106,0.12797627,-6.41,-19.174,-10.169,1
0.0712275,6.18123,6.535572,0.004886922,-0.22815818,0.007330383,-6.41,-18.861,-10.818,1
-0.14903906,6.3392477,6.6947865,0.00030543262,-0.32834008,-0.061391957,-6.41,-18.54,-10.818,1
-0.20709845,6.3302693,7.3645644,0.16584991,-0.47739118,-0.061391957,-6.715,-18.54,-11.126,1
-0.20231004,6.3661823,7.2149267,0.057421334,-0.26083946,-0.039095376,-7.371,-18.54,-11.126,1
-0.2777274,5.365406,7.844003,-0.12675454,-0.07269296,-0.0421497,-8.067,-18.54,-11.126,1
0.7799112,5.923255,6.882133,0.2519819,-0.2910773,0.2864958,-8.067,-18.54,-11.126,1
1.0600328,5.3396683,6.979098,0.0021380284,0.13408493,0.12614368,-8.403,-18.54,-11.126,1
0.6955156,4.991312,6.2823853,0.13072516,0.3042109,-0.06841691,-8.403,-18.54,-11.126,1
1.0462662,4.8979383,7.183802,-0.26633725,0.2938262,0.009468411,-8.403,-18.54,-11.795,1
1.0193313,5.2397103,6.671443,-0.052534413,0.11728613,-0.038179077,-7.646,-18.54,-12.145,1
0.6745663,5.073313,7.5255747,-0.26725355,0.016187929,-0.12217305,-7.298,-18.54,-12.484,1
0.55485624,5.2061915,8.040926,-0.21288654,-0.13988814,-0.20250183,-6.98,-18.19,-13.139,1
0.641646,5.3115363,6.9132576,0.06872234,-0.19853121,-0.17928895,-6.68,-17.884,-13.139,1
-0.12569559,5.1876364,7.6524673,-0.11636983,-0.103847094,-0.11789699,-6.68,-17.884,-13.139,1
0.47405192,5.805939,6.6486983,0.26725355,-0.43890667,0.04642576,-6.68,-17.884,-13.452,1
0.34596214,5.965752,6.8545995,0.11636983,-0.010995574,-0.042455133,-7.014,-17.884,-13.125,1
0.3633201,6.145916,6.616975,0.18784106,-0.029321533,0.049480084,-7.341,-17.884,-12.774,1
1.3186066,6.655881,6.247669,0.25228736,-0.11942416,0.056505036,-7.341,-18.54,-12.774,1
0.41180268,6.736685,6.509236,0.11362094,0.33383787,0.03573562,-7.341,-18.54,-12.452,1
0.32680854,6.637924,7.5944076,0.034208454,0.46303585,0.2312125,-7.341,-18.846,-12.452,1
0.94451255,6.0142345,6.5469446,0.15088372,0.121256754,0.21746802,-7.014,-18.846,-12.452,1
0.25558102,5.544971,6.2626333,0.02565634,0.15515977,-0.06291912,-6.703,-18.846,-12.452,1
0.019153614,5.620987,7.00723,-0.15210545,0.03145956,-0.0030543262,-6.396,-18.846,-12.452,1
-0.39324763,5.3265004,6.576872,-0.20830505,0.035124753,-0.07360926,-6.072,-18.846,-12.452,1
-0.36870706,5.044583,7.387908,-0.36774087,0.055588737,-0.124311075,-5.772,-18.534,-12.776,1
-0.7350199,5.018845,6.985682,-0.30757064,0.172264,-0.0729984,-5.149,-17.845,-12.776,1
-1.0229226,5.2361193,7.350199,-0.23732115,0.16065755,-0.11148291,-4.753,-17.163,-13.133,1
-0.6679823,5.34326,7.6452847,-0.16126843,-0.01863139,-0.1001819,-4.006,-16.854,-13.815,1
-0.8846575,5.225345,7.2508397,-0.122783914,0.009162978,-0.027794369,-3.701,-16.516,-14.17,1
-0.7092823,5.553351,6.615179,0.14355333,-0.19547687,0.070249505,-3.701,-16.194,-14.17,1
0.016759412,5.777209,7.16405,-0.14172074,-0.1872302,-0.017104227,-3.701,-16.194,-14.17,1
-0.22984336,5.728726,7.4968443,-0.010995574,-0.24953845,-0.124311075,-4.032,-16.194,-14.17,1
-0.9600749,6.0477533,7.137714,0.27122417,-0.15118915,-0.1160644,-4.032,-16.194,-13.859,1
-0.33399114,6.127361,6.9862804,0.12767084,-0.22388211,0.0012217305,-4.032,-16.542,-13.859,1
-0.40521863,5.490503,7.9451585,-0.31948254,-0.079107046,-0.064446285,-4.032,-16.868,-13.549,1
-0.2777274,5.3342814,6.83784,-0.08735373,-0.12644911,0.06169739,-4.032,-16.868,-13.549,1
0.36272156,4.526837,7.472902,-0.18051068,-0.2687807,-0.022907447,-4.032,-16.566,-13.549,1
0.23463176,4.0599675,8.04751,-0.074830994,-0.09193522,-0.017715093,-4.353,-16.566,-13.221,1
0.717662,4.5016975,7.299921,0.103847094,-0.007941248,0.22937989,-4.353,-16.566,-13.221,1
1.22224,4.548983,8.125322,-0.026572637,0.027488936,0.10934488,-4.353,-16.566,-13.221,1
1.2252327,4.449624,7.6404963,0.22785273,0.032986723,-0.04734206,-4.353,-16.566,-12.919,1
1.1001357,4.8285065,6.9958572,0.19272798,0.093462385,-0.12003502,-4.353,-16.566,-12.919,1
0.49320555,5.1960163,7.0227923,0.04062254,-0.008857546,-0.09468412,-4.353,-16.899,-12.586,1
0.92176765,5.7496753,7.303512,0.05375614,-0.2611449,-0.09010262,-4.04,-17.514,-12.261,1
0.2873042,5.533,6.8067155,0.08277224,-0.032375857,-0.28893927,-4.04,-17.514,-11.958,1
0.030526072,5.9705405,6.4631476,-0.00580322,0.016798794,-0.16707164,-4.04,-17.819,-11.633,1
-0.2908955,6.0860605,6.839037,-0.035430185,0.25625798,-0.03573562,-3.736,-17.819,-11.633,1
0.17836803,6.067506,7.6494746,0.086437434,0.1600467,0.049480084,-3.099,-17.819,-11.633,1
-0.26874915,6.633734,6.7426705,0.39920044,0.15118915,0.08155051,-2.787,-18.142,-11.633,1
0.1376666,6.3697734,7.9092455,0.070249505,-0.070554934,0.22296582,-2.438,-18.476,-11.283,1
1.4131776,5.9807158,6.2063694,0.4184427,-0.26939157,0.183565,-2.438,-18.785,-10.627,1
-0.09756372,5.2127757,6.3907228,0.01740966,0.1872302,-0.010079277,-2.438,-19.104,-10.26,1
-0.65301853,5.097854,6.9916677,-0.19914207,0.23762658,0.13683382,-2.438,-19.104,-9.596,1
-0.8888474,5.3845596,6.612785,-0.04428773,0.0842994,0.03023783,-2.438,-19.104,-9.281,1
-0.49559975,5.424064,7.6488757,-0.24587326,0.11636983,-0.021685716,-2.114,-18.774,-9.281,1
-0.24899697,5.6389437,6.6187706,-0.14935656,0.02107485,-0.063224554,-1.794,-18.464,-8.94,1
-0.84694886,5.4881086,6.7091517,-0.19242255,0.06688975,-0.03481932,-1.794,-18.15,-8.94,1
-0.5847838,5.5707088,6.7211227,-0.22937989,-0.065973446,-0.0693332,-1.448,-18.15,-9.257,1
-0.40880993,5.8532248,6.95336,-0.23671028,-0.1432479,-0.07696902,-1.126,-17.845,-9.599,1
-0.15203181,6.063316,7.240066,-0.108123146,-0.28588495,-0.070249505,-1.126,-17.536,-9.919,1
-0.47046062,5.8963203,7.53575,0.0290161,-0.3023783,-0.15577064,-1.126,-17.536,-9.919,1
-0.18195933,6.0010667,7.2089415,0.19028452,-0.40011674,-0.15241088,-1.126,-17.536,-9.602,1
-0.049679685,5.8185086,7.9996266,-0.030848695,-0.39400807,-0.29168814,-1.426,-17.536,-9.288,1
-0.93134445,4.8937483,7.24665,0.11942416,0.09865474,-0.172264,-1.426,-17.857,-9.288,1
-0.10414778,5.005079,6.3248825,0.19272798,-0.03634648,0.07788532,-1.426,-18.173,-8.972,1
0.17417817,4.656722,7.323863,0.0067195175,0.083383106,0.002443461,-1.106,-18.846,-8.972,1
0.4225766,4.6142254,7.133524,0.01038471,0.1301143,0.14782938,-1.106,-19.149,-8.67,1
0.9624691,4.748899,7.2753806,-0.06872234,0.08155051,0.21044308,-1.106,-19.479,-8.67,1
0.9283517,4.741118,7.2807674,-0.269697,0.09621128,0.06505715,-1.106,-19.779,-8.67,1
0.51714754,5.0038815,7.6123643,-0.3399465,0.069027774,0.069027774,-1.106,-19.779,-8.981,1
0.5686229,5.127183,7.40347,-0.10720685,-0.047036625,0.061086524,-1.411,-19.438,-9.608,1
0.45609543,4.8500543,7.32925,-0.08399397,0.002443461,0.033292156,-1.411,-19.114,-9.938,1
0.59376204,4.911106,7.047931,-0.13622294,0.042455133,0.043066,-1.716,-18.806,-10.247,1
0.2873042,5.1529207,7.7985134,-0.17623462,0.12095132,-0.06078109,-1.716,-18.806,-10.247,1
0.21667525,5.6778493,7.359776,-0.0720821,0.21410827,-0.030848695,-1.716,-18.504,-10.607,1
-0.16340427,5.561132,7.7105265,-0.045814894,0.2660318,0.03726278,-1.716,-18.504,-10.917,1
0.109534726,5.392939,8.301296,0.038789943,0.13469578,0.048563786,-1.399,-18.504,-10.917,1
0.4297592,4.6525326,8.391677,0.24404067,0.04337143,-0.086437434,-1.058,-18.504,-10.917,1
0.32022446,4.1982327,7.153875,0.22693644,-0.19211712,-0.27458394,-0.439,-18.504,-10.566,1
0.24660277,4.7560816,6.0046577,0.22388211,-0.28710666,-0.32162055,-0.439,-19.122,-9.825,1
-0.35673606,3.9564183,7.8182654,-0.28252518,-0.25534168,-0.2843578,-0.123,-19.122,-9.507,1
-0.22924481,3.8935704,7.8733325,0.022296581,-0.35002577,-0.3930918,-0.123,-19.425,-9.207,1
-1.3772645,4.223372,7.6243353,-0.046120327,-0.06872234,-0.34666604,-0.123,-19.425,-8.9,1
-1.5167267,4.382586,8.406641,-0.16523905,0.038789943,-0.18234327,-0.123,-19.425,-8.564,1
-0.3238158,5.0763063,7.363966,0.17989981,-0.20799962,-0.08307768,0.193,-19.425,-8.564,1
-1.0366893,4.575918,7.5225816,0.06688975,-0.052534413,-0.19608775,0.193,-19.425,-8.236,1
-1.0253168,4.6764746,7.269395,-0.023518313,-0.08246681,-0.1459968,-0.117,-19.425,-8.236,1
-0.97862995,5.0637364,7.1550717,-0.06841691,-0.052534413,-0.109650314,-0.117,-19.12,-7.936,1
-0.7565677,5.380968,7.675212,-0.07086037,-0.20861048,-0.0693332,-0.448,-19.12,-7.936,1
-0.81761986,5.5880666,7.157466,0.13805555,-0.13744467,-0.08460484,-0.755,-19.12,-7.936,1
-0.61291564,5.722142,7.0156097,0.2489276,-0.2910773,-0.07727446,-0.755,-19.12,-7.936,1
0.016759412,5.947197,7.067683,0.16554448,-0.3717115,-0.03176499,-1.422,-19.12,-7.936,1
0.044891283,5.544971,7.8769236,-0.082161374,-0.40011674,-0.118202426,-1.757,-19.442,-7.603,1
-0.93732995,4.5567646,7.9511437,-0.23090707,0.063224554,0.00030543262,-2.394,-19.442,-7.299,1
-0.2825158,4.386776,7.053318,0.26328292,-0.15210545,0.27763826,-2.394,-19.442,-7.997,1
0.049081136,4.1138372,7.267599,0.05222898,0.09743301,0.08979719,-2.709,-19.142,-8.316,1
0.61112,4.103063,7.7129207,-0.052534413,0.027488936,-0.058948494,-3.012,-19.142,-8.316,1
0.130484,4.4765587,8.01459,-0.015882496,0.16279559,-0.0729984,-3.012,-19.142,-8.622,1
-0.7200562,4.9440265,6.8749504,0.09987647,0.37140608,0.17654006,-2.709,-19.142,-9.304,1
-0.19871874,5.1301756,7.5507135,-0.09468412,-0.03023783,0.18600847,-2.709,-19.142,-10.081,1
0.272939,4.9721584,7.581838,-0.15485434,0.012217305,0.20525073,-2.709,-18.83,-10.081,1
0.19692309,4.8823757,6.9784994,-0.004581489,-0.036957346,0.14538592,-3.044,-18.511,-10.394,1
0.059855044,5.2462945,7.4028716,-0.16340645,-0.010995574,0.10354166,-3.044,-18.191,-10.699,1
-0.0011971008,5.5701103,6.956353,0.15210545,0.106901415,0.12858713,-3.353,-17.883,-10.699,1
-0.30466217,5.367202,7.777564,-0.030848695,0.38331795,0.22204952,-3.353,-17.883,-11.01,1
-0.39085343,5.713164,7.5321584,0.1518,0.3631594,0.25900686,-3.353,-17.883,-11.351,1
-0.25438392,5.8508306,6.6864066,0.29718593,0.30665436,0.26419923,-2.684,-17.883,-11.691,1
-0.046686932,4.7141833,8.07265,-0.07269296,0.17715092,0.13347405,-2.383,-18.194,-12.017,1
-0.0724246,4.7548847,6.657676,0.2012801,-0.0009162979,0.02565634,-2.383,-18.194,-12.017,1
-0.30286652,4.547786,7.0467343,0.14080444,0.004276057,-0.03970624,-2.072,-18.505,-12.322,1
-0.6733692,4.520851,8.013991,-0.25625798,0.081855945,0.08827003,-1.76,-18.856,-12.322,1
-0.7823054,4.844667,8.067862,-0.12064589,0.111177474,0.071776666,-1.76,-18.856,-12.673,1
-0.24959552,5.357625,6.8240733,0.049480084,-0.065973446,0.043982297,-1.76,-18.856,-12.673,1
-0.6123171,5.0020857,7.301717,-0.14660765,-0.13591751,-0.056199603,-1.457,-18.856,-12.983,1
-0.62728083,5.027225,6.809708,-0.069027774,-0.14446963,-0.0143553335,-1.457,-18.856,-12.983,1
-0.33518824,5.383961,7.2352777,-0.21471913,-0.24251351,-0.07147124,-1.457,-18.856,-13.294,1
-0.09935937,5.7377043,7.32506,0.07574729,-0.35979962,-0.23823744,-1.457,-18.533,-13.601,1
-0.38606504,5.639542,7.642292,0.059253927,-0.32284227,-0.31887165,-1.762,-18.533,-13.601,1
-0.05626374,5.834071,7.41185,0.16249016,-0.44104472,-0.4147775,-1.762,-18.533,-13.601,1
-0.6560113,4.7722425,9.475053,-0.2764165,-0.46028697,-0.36102137,-2.07,-18.867,-13.601,1
-1.0869676,4.5663414,6.2793927,0.4083634,0.004276057,-0.036651913,-2.07,-19.169,-13.601,1
0.30406362,4.1802764,7.1460934,0.050701816,-0.1151481,0.0571159,-2.07,-19.52,-13.601,1
0.75237787,4.2479124,7.326257,0.07360926,-0.06352998,-0.12034045,-2.07,-19.879,-13.601,1
1.246182,5.085284,7.6255326,-0.0061086523,-0.023518313,0.13744467,-2.07,-20.53,-13.601,1
0.85054016,4.8243165,7.560889,-0.14080444,-0.07086037,0.10751228,-2.07,-20.53,-13.601,1
0.40940848,4.9787426,7.2831616,-0.267559,0.13591751,0.059864793,-2.391,-20.53,-13.906,1
0.7158663,4.970961,7.5566993,-0.1826487,0.04642576,0.02321288,-2.391,-20.53,-14.21,1
0.45669398,4.865018,7.4471645,-0.10842858,0.06658431,-0.04795292,-2.391,-19.845,-14.52,1
0.39324763,5.197812,7.1305313,0.019242255,0.002443461,0.0036651916,-2.391,-19.845,-14.822,1
-0.10354923,5.261258,7.2143283,0.051923547,-0.04550946,-0.021685716,-2.391,-19.528,-14.822,1
0.3453636,5.2917843,7.1712327,0.08002335,0.010995574,0.17501289,-2.391,-19.528,-15.145,1
0.43634325,5.5443726,7.6069775,-0.05131268,0.40103304,0.18325958,-2.391,-19.528,-15.145,1
-0.55485624,5.8628016,7.33763,0.0061086523,0.7483099,0.17989981,-2.391,-19.528,-15.779,1
-0.6476316,5.5120506,7.805696,0.112704635,0.5467244,0.28802297,-1.367,-19.528,-15.779,1
-0.11432313,4.9057193,7.777564,0.028710667,0.32406402,0.24495697,-0.651,-19.834,-15.779,1
-0.35075054,4.903325,6.343437,0.21166481,0.04062254,0.172264,-0.314,-19.834,-15.779,1
-0.62608373,4.2784386,7.7213006,0.02443461,-0.14874569,0.1337795,-0.314,-20.156,-15.779,1
-0.688333,4.653131,6.6983776,0.1142318,-0.11484267,-0.0030543262,-0.314,-20.458,-15.452,1
-0.6619968,4.7123876,7.955932,-0.2883284,-0.086132,-0.030848695,-0.646,-20.458,-15.452,1
0.038307227,5.199009,7.0503254,-0.0571159,-0.3203988,-0.2489276,-0.959,-20.458,-15.452,1
-0.61770403,5.1104236,6.885724,-0.093462385,-0.16432275,-0.28527406,-0.959,-20.458,-15.452,1
-0.9175778,4.9506106,7.2544312,-0.16554448,-0.1554652,-0.28924468,-0.959,-20.458,-15.452,1
-0.7206547,5.341464,6.8504095,-0.119729586,-0.2996294,-0.2321288,-1.278,-20.132,-15.452,1
-0.866701,5.527613,7.3148847,-0.06383542,-0.16554448,-0.27091873,-1.278,-20.132,-15.452,1
-0.4237737,5.593454,7.6440873,0.008246681,-0.37415496,-0.20158553,-1.278,-19.818,-16.127,1
-0.6302736,5.774216,7.2502413,0.13316862,-0.344528,-0.21105394,-1.278,-19.818,-16.127,1
-0.7188591,4.6698904,9.340978,-0.2910773,-0.30695978,-0.26939157,-1.6,-19.818,-16.127,1
-1.2958617,4.657321,6.5846534,0.2919936,0.05009095,0.016798794,-1.914,-19.818,-16.127,1
-0.32621,4.173692,7.478289,0.01038471,-0.06566802,0.2706133,-1.914,-19.818,-16.127,1
0.6889315,3.8552632,7.9846625,-0.018020526,0.0033597588,0.16982053,-2.236,-20.158,-15.792,1
1.127669,4.177882,7.409456,0.15057829,0.09896017,0.15943582,-2.586,-20.158,-15.792,1
0.5279215,4.3664255,7.8116817,-0.0421497,0.098043874,0.17867808,-2.923,-20.158,-15.792,1
-0.12988544,4.8506527,6.2967505,0.42485678,0.0421497,0.24617869,-2.923,-20.158,-15.792,1
0.56323594,4.8542438,7.6506715,-0.20280726,0.22143865,0.122478485,-3.262,-20.158,-15.489,1
0.931943,5.273828,6.9665284,-0.09162979,-0.062002823,0.07147124,-3.262,-20.158,-15.489,1
0.87567925,5.1984105,7.141305,-0.051923547,-0.12492194,0.029626964,-3.572,-20.158,-15.489,1
0.22385786,5.513248,6.871359,-0.03359759,0.10751228,-0.11209377,-3.572,-20.158,-15.803,1
0.048482586,5.60722,7.173627,-0.03145956,0.19364429,-0.013439035,-3.572,-19.854,-15.803,1
0.0712275,5.9118824,7.4256167,0.04734206,0.10903945,0.032986723,-3.259,-19.854,-15.803,1
-0.7308301,5.623381,8.787917,-0.15577064,0.40042216,0.021991149,-2.941,-19.529,-15.803,1
0.109534726,4.619612,7.571663,0.21838433,-0.048563786,0.19730948,-2.941,-19.529,-16.14,1
-0.30825347,3.8432922,6.2566476,0.21044308,-0.014660766,0.0711658,-2.941,-19.212,-16.14,1
-0.84096336,4.180875,7.587824,0.039095376,0.015577064,0.17134771,-2.941,-19.212,-16.458,1
-0.079008654,4.505289,8.392276,-0.321926,-0.18692477,0.19394971,-2.941,-19.212,-16.458,1
0.94092125,5.2474914,6.0824695,0.33200526,-0.45448375,-0.17501289,-3.645,-19.212,-16.458,1
-0.2124854,5.1301756,7.77517,-0.32467487,0.055283304,-0.19181168,-4.397,-19.212,-16.151,1
-0.45549688,5.2624555,7.1730285,-0.1908954,0.07544186,-0.12492194,-4.397,-18.89,-16.151,1
-0.17238252,5.693412,7.0132155,0.030848695,-0.13744467,-0.30024028,-4.397,-18.246,-16.151,1
0.26156655,5.5563436,8.1402855,-0.0076358155,-0.39675698,-0.36346483,-4.397,-17.913,-16.476,1
0.17597382,5.743091,7.402273,0.19639318,-0.44959682,-0.2660318,-4.397,-17.913,-16.813,1
0.15861586,5.4138885,8.902839,-0.09987647,-0.4529566,-0.35735616,-5.111,-17.913,-16.813,1
-0.4357447,4.537012,7.828441,0.12217305,-0.14721853,-0.25625798,-5.111,-17.913,-16.813,1
0.41000703,4.243124,7.191583,0.13591751,-0.19242255,-0.023518313,-5.43,-17.913,-16.813,1
0.943914,3.9390604,6.928221,0.16554448,-0.027794369,-0.12492194,-5.43,-18.22,-16.513,1
1.3042414,4.220978,7.1610575,-0.06841691,-0.1414153,-0.17867808,-5.43,-18.22,-16.513,1
0.21667525,4.6034513,7.563283,-0.0711658,-0.018936822,-0.23640485,-5.43,-18.22,-16.513,1
0.5129577,5.561132,6.9000893,0.02107485,-0.04734206,-0.006414085,-5.113,-18.22,-16.513,1
0.51475334,5.6359506,7.6548615,-0.1133155,-0.040011674,-0.092240654,-4.797,-18.22,-16.815,1
0.7254431,5.943606,7.6800003,0.15302174,-0.063224554,0.11942416,-4.797,-18.22,-16.815,1
0.41000703,6.005855,6.7809777,0.25992316,0.18203785,0.04428773,-4.797,-18.22,-16.815,1
0.741604,5.805939,7.2867527,0.30634892,0.052534413,-0.016493361,-4.479,-18.22,-16.815,1
0.22385786,6.884527,7.033566,0.42302418,0.17562376,-0.09193522,-4.179,-18.937,-16.815,1
-0.6871359,7.019201,7.359776,0.42058071,0.5128214,0.046120327,-3.524,-19.946,-16.476,1
0.30286652,5.708974,6.8109055,0.7449502,0.21930063,0.23732115,-2.801,-20.686,-16.172,1
-0.29209262,5.189432,5.0547585,0.47861293,0.1695151,0.10476339,-2.049,-22.122,-15.127,1
-0.60573304,6.049549,4.4544125,0.4120286,0.121256754,0.30634892,-1.712,-23.497,-13.911,1
-0.60573304,6.569091,6.5391636,-0.33108896,-0.07880162,0.2406809,-1.712,-24.597,-13.162,1
0.48243165,7.173627,6.4721255,-0.122783914,-0.07452556,0.048563786,-2.04,-24.597,-13.162,1
-0.0017956513,7.433398,4.7626657,0.09773844,-0.14294247,-0.0033597588,-2.04,-24.597,-13.162,1
-0.09816227,7.3328414,6.82946,-0.23976462,-0.14660765,-0.09682214,-2.345,-24.597,-13.162,1
-0.35913026,7.2867527,5.4940944,0.28619036,-0.13500121,-0.20158553,-2.345,-25.224,-13.162,1
-0.23163901,7.5824366,5.2480903,0.3210097,-0.3277292,-0.099265605,-2.345,-25.576,-13.162,1
0.0017956513,7.833828,5.0661306,0.39584067,-0.45448375,-0.11911872,-2.673,-26.356,-12.509,1
0.7835025,8.246229,4.5914803,0.3643811,-0.50579643,-0.19303341,-3.341,-26.715,-11.418,1
-0.17178397,7.273585,5.286996,-0.12186762,-0.017715093,-0.040317107,-4.016,-27.421,-10.723,1
-0.18794483,6.7809777,5.2516813,-0.04795292,0.44837508,0.17287487,-4.335,-27.421,-10.395,1
1.0127473,6.977302,5.971139,-0.070249505,-0.14844026,-0.096516706,-4.643,-27.421,-10.697,1
0.94092125,6.7845693,4.8189297,0.12339478,-0.15027285,-0.27763826,-4.643,-27.421,-10.697,1
0.30466217,6.9425864,6.127361,-0.3145956,0.0033597588,-0.08979719,-4.643,-27.421,-10.697,1
0.16998832,7.189788,5.1666875,-0.15882497,0.04886922,0.10903945,-4.643,-27.102,-10.697,1
0.7763199,7.128137,5.673061,-0.22724187,-0.03390302,-0.03023783,-4.643,-26.745,-10.697,1
0.1376666,7.1341224,5.521029,-0.14874569,0.111177474,-0.1151481,-4.643,-26.136,-11.363,1
0.2112883,7.445967,5.4857144,-0.23884831,0.10598512,0.08979719,-4.319,-26.136,-12.063,1
0.5105635,7.351396,5.8741736,-0.20311269,0.16310102,0.059864793,-4.319,-26.136,-12.382,1
0.3788824,7.462128,5.844845,-0.122478485,0.28955013,0.06047566,-4.017,-25.527,-12.698,1
0.08140286,7.120356,6.8444242,-0.37293324,0.17348573,0.16493362,-3.694,-24.888,-13.017,1
0.5177461,6.5643024,7.6608467,-0.3555236,0.14385876,0.26053402,-3.694,-24.127,-13.711,1
0.19692309,6.2500634,6.209362,0.15332718,0.0421497,0.022602014,-3.694,-23.484,-14.027,1
-0.8924387,5.559336,5.774216,0.14935656,0.13958271,-0.052839845,-3.375,-23.17,-14.346,1
-1.0169371,5.395932,6.4882865,0.070249505,0.16035213,0.17715092,-3.375,-23.17,-13.964,1
-0.40162733,6.0184245,7.269395,-0.4111123,-0.044898596,0.12003502,-3.375,-23.48,-13.964,1
-0.18375498,6.6103907,6.320094,0.017715093,-0.07880162,-0.19242255,-3.375,-23.48,-13.964,1
-1.186327,6.2967505,5.5820813,-0.005192355,0.03390302,-0.01863139,-3.375,-23.161,-13.964,1
-0.19093758,6.294955,6.83365,-0.23243423,-0.23854288,-0.016798794,-3.375,-23.161,-13.964,1
-0.30705637,6.8186865,6.031593,0.022907447,-0.27030787,-0.105068825,-3.677,-22.857,-13.964,1
-0.6775591,6.749853,6.0118403,0.033292156,-0.23976462,-0.038179077,-4.023,-22.857,-13.964,1
-0.12389994,6.9108634,6.806117,0.129198,-0.46578476,-0.048258353,-4.35,-22.857,-13.595,1
0.57879823,7.6943655,6.591237,0.15851954,-0.5366451,-0.103847094,-5.075,-22.857,-13.284,1
0.051475335,6.5206084,7.6746135,-0.15760323,-0.29657507,-0.14630222,-5.755,-22.857,-12.518,1
0.0077811554,5.93762,6.5601125,0.23182335,-0.15241088,0.010079277,-6.39,-23.171,-12.518,1
1.2330139,5.507861,6.257845,0.33200526,-0.20830505,0.025350908,-6.713,-23.171,-11.871,1
1.3317747,5.519832,5.8574142,0.06383542,0.015577064,-0.19333886,-6.713,-23.503,-11.463,1
1.0696096,5.9944825,6.7708025,-0.24373524,-0.012217305,-0.070249505,-6.713,-23.503,-11.138,1
0.22505496,6.3123126,6.3512187,-0.23304509,0.30665436,0.034208454,-6.399,-23.503,-11.138,1
0.78888947,6.3033347,6.3177,-0.13347405,0.06078109,0.0012217305,-6.065,-23.202,-11.811,1
0.56084174,6.266823,6.260239,-0.11942416,0.051618114,0.022602014,-5.764,-22.901,-12.471,1
0.29328972,6.6522894,6.3063273,-0.12614368,0.20555615,0.12797627,-5.429,-22.572,-12.818,1
0.5267244,6.652888,6.8330517,-0.23243423,0.24984388,0.19914207,-5.079,-22.247,-12.818,1
0.55964464,6.657676,6.8384385,0.021991149,0.30909783,0.15302174,-4.76,-21.937,-13.163,1
0.3866636,7.1730285,6.8085113,0.18509217,0.47891834,0.07269296,-4.44,-21.937,-13.163,1
0.42556936,6.6504936,7.385514,0.0693332,0.2687807,0.12797627,-3.741,-21.937,-13.467,1
0.3333926,5.957971,5.7418942,0.5366451,0.03359759,-0.1966986,-3.094,-21.937,-13.154,1
-0.22026655,5.0960584,6.2009826,-0.109650314,-0.2312125,-0.3005457,-3.094,-22.262,-12.767,1
-0.7182605,5.2744265,6.3745623,-0.021380283,-0.40775254,-0.10262536,-3.094,-22.607,-12.071,1
-1.5891514,6.147113,6.509236,-0.121256754,-0.16279559,-0.16432275,-3.094,-22.607,-11.766,1
-0.7715315,6.1423244,7.8787193,-0.4184427,-0.08582657,-0.116675265,-3.094,-22.607,-11.766,1
-0.81343,6.443994,5.8741736,0.13836098,0.04642576,-0.09621128,-2.78,-22.607,-11.766,1
-0.83138657,6.049549,6.894104,-0.3115413,-0.04642576,0.036957346,-2.78,-22.297,-12.115,1
-0.58777654,6.375759,6.0944405,0.007330383,-0.3454443,-0.02076942,-2.78,-21.981,-12.115,1
-0.32142156,6.9024835,5.9585695,-0.022602014,-0.43066,0.0571159,-2.78,-21.981,-12.115,1
-0.84934306,6.647501,7.2364745,-0.17134771,-0.24312437,0.051923547,-3.448,-21.981,-12.115,1
-0.4890157,6.749853,7.3549876,0.111177474,-0.18203785,0.22540927,-3.814,-21.981,-12.115,1
0.29628247,6.749853,7.7344685,0.030848695,-0.09712757,0.059864793,-4.478,-21.981,-11.775,1
-0.16460137,5.679645,6.8109055,0.1966986,0.3390302,0.14294247,-4.478,-21.981,-11.466,1
1.192911,5.199009,5.715558,0.2932153,0.23915374,0.20005837,-4.478,-22.283,-11.466,1
0.8062474,4.972757,6.9904704,-0.1826487,0.3933972,-0.059864793,-4.168,-22.615,-11.466,1
1.0414777,5.4605756,6.3548098,-0.025045475,0.09590584,-0.04428773,-3.829,-22.615,-11.466,1
0.4441244,5.5910597,6.95755,-0.1572978,0.12675454,0.008246681,-3.523,-22.615,-11.466,1
0.64942724,6.1985884,6.1890116,-0.03726278,-0.03359759,0.056505036,-3.523,-22.615,-11.773,1
0.3705027,5.6569,7.2065473,-0.29077184,-0.40683624,-0.14905111,-3.523,-22.615,-11.773,1
-0.034715924,5.8586116,7.0036387,0.07971791,0.26145032,-0.004581489,-3.84,-22.302,-12.429,1
0.091578215,6.4577603,6.697779,0.4633413,0.03726278,0.18020524,-3.84,-22.302,-12.429,1
0.3465607,7.0754647,6.827066,0.35033122,0.01863139,-0.059253927,-3.84,-22.607,-12.429,1
0.6781576,7.1329255,6.23091,0.17562376,-0.04795292,-0.04886922,-3.84,-23.275,-11.799,1
-0.6548142,7.0515227,5.919065,-0.20158553,0.52656585,-0.12583824,-3.84,-23.59,-11.462,1
-0.31124622,6.9862804,7.426215,-0.17379116,0.2932153,0.10995574,-3.518,-23.918,-11.462,1
-0.1388637,5.801749,7.1861963,0.007941248,0.10323623,0.069027774,-3.143,-23.918,-11.462,1
-0.7344214,4.9643774,6.409278,0.2874121,0.16218472,0.1518,-2.819,-23.606,-11.804,1
-1.0390835,5.199009,5.104438,0.08674286,0.1301143,0.18936823,-2.819,-23.606,-11.804,1
0.14963761,5.6096144,7.9667063,-0.5458081,0.043066,0.19547687,-2.819,-23.606,-11.804,1
0.107140526,6.395511,6.0381765,-0.08124508,-0.08399397,-0.20219639,-2.819,-23.606,-11.804,1
-0.705691,5.9412117,6.83784,-0.17012598,-0.040011674,-0.11453723,-3.132,-23.266,-12.124,1
-0.76554596,6.2620344,6.173449,-0.005497787,-0.20922135,-0.17531833,-3.132,-22.943,-12.487,1
-0.4333505,6.5469446,6.853402,-0.036957346,-0.301462,-0.19761491,-3.132,-22.943,-12.796,1
-0.44771573,6.451775,7.0461354,0.08277224,-0.3484986,-0.18173242,-3.132,-22.943,-12.796,1
-0.6967127,6.7887588,6.353613,0.48258355,-0.37995818,-0.14202617,-3.443,-22.943,-12.489,1
-0.055066638,7.0844426,6.621165,0.40500367,-0.54153204,-0.22357668,-4.08,-22.943,-12.161,1
-0.8463503,6.2482677,7.363966,0.055588737,-0.32345316,-0.36346483,-4.421,-23.657,-12.161,1
0.08678981,5.94181,6.277597,0.5525276,-0.19486602,0.087659165,-4.73,-24.635,-11.532,1
0.3369839,6.1507044,5.5551467,0.310625,0.3182608,0.08857546,-4.73,-25.328,-10.803,1
0.1436521,6.0441623,5.899313,-0.053450707,0.32528573,0.20280726,-4.73,-26.037,-10.061,1
0.8690952,6.6265516,6.2285156,-0.12705997,0.23243423,0.38026363,-4.73,-26.037,-10.061,1
1.2419921,6.7330937,6.3248825,-0.03390302,0.1160644,0.029932396,-4.73,-26.037,-10.829,1
1.1546037,6.64391,6.1770406,-0.006414085,-0.1423316,-0.20616703,-5.064,-26.037,-11.485,1
0.5315128,6.7809777,5.8364654,-0.064751714,-0.064446285,-0.11453723,-5.064,-26.037,-11.827,1
0.8074445,6.7803793,5.668871,-0.052839845,-0.17012598,-0.1386664,-5.064,-26.037,-11.476,1
0.40641573,6.818088,6.1902084,-0.23182335,-0.19364429,-0.17745635,-4.74,-26.037,-11.476,1
0.035314474,7.009624,5.5018754,-0.084910266,-0.08277224,-0.22174409,-4.425,-26.037,-11.476,1
-0.45250413,7.04015,6.166865,-0.2837469,0.15790866,-0.19120082,-4.425,-26.037,-12.109,1
-0.004189853,7.0024414,6.1303535,-0.1777618,0.070554934,-0.020158553,-4.107,-25.709,-12.426,1
0.39444473,7.153875,6.1926026,-0.10476339,0.1337795,-0.025350908,-3.785,-25.407,-12.744,1
-0.20709845,6.893505,7.394492,-0.34666604,0.4361578,-0.12858713,-3.439,-24.714,-13.349,1
-0.047285482,6.523601,7.0940194,0.102319926,0.17959438,0.007941248,-2.743,-24.406,-13.694,1
0.48362875,6.169858,6.6828156,0.06994407,-0.22021692,-0.08002335,-2.066,-24.406,-14.015,1
-0.60573304,5.2965727,5.9124813,0.14477506,-0.042455133,-0.30757064,-2.066,-24.406,-14.015,1
-0.9576807,5.1038394,6.692991,-0.17073683,-0.18967366,-0.22204952,-1.754,-25.03,-14.015,1
-1.7729063,5.118803,6.813898,0.0018325958,-0.18661933,-0.24678956,-1.435,-25.03,-14.015,1
-0.83138657,5.7359085,7.4495587,-0.28191432,-0.2782491,-0.22021692,-1.435,-24.684,-14.372,1
-0.33039984,5.988497,6.607398,0.007330383,-0.41172317,-0.3491095,-1.435,-24.368,-14.674,1
-0.85891986,5.3318872,6.8348475,-0.11209377,-0.3652974,-0.43493605,-1.435,-24.368,-14.674,1
-0.78410107,5.847239,6.576872,-0.038789943,-0.3915646,-0.36835176,-1.435,-24.368,-14.674,1
-1.2336124,6.238691,6.2686186,0.098043874,-0.22815818,-0.26358834,-1.435,-24.052,-14.674,1
-0.46926352,6.2650275,7.0287776,-0.16340645,-0.45906523,-0.23640485,-1.756,-24.052,-14.674,1
-0.85413146,6.060323,6.5601125,0.19456059,-0.2855795,-0.19028452,-2.433,-24.052,-15.034,1
-0.17238252,6.707356,6.872556,-0.03176499,-0.16310102,-0.019242255,-3.089,-24.052,-15.335,1
-0.20530279,6.5625067,8.574833,-0.3463606,-0.23640485,-0.027794369,-3.437,-24.363,-15.335,1
-1.0187328,5.8424506,6.1596823,0.23487769,0.01740966,0.047036625,-3.437,-24.363,-15.335,1
-0.05805939,4.6926355,7.5483193,-0.0021380284,-0.26358834,0.014660766,-4.046,-24.363,-15.335,1
1.4550761,4.177882,7.390302,0.3145956,-0.4538729,-0.09468412,-4.391,-24.363,-15.335,1
1.1713632,5.182848,7.0646906,-0.02565634,-0.09468412,-0.172264,-5.114,-25.027,-15.335,1
0.47105917,5.5120506,7.1903863,-0.0015271631,-0.040317107,-0.14538592,-5.418,-25.724,-15.335,1
0.2100912,5.901707,6.0531406,0.079107046,0.076052725,-0.021685716,-5.418,-26.124,-15.335,1
0.51714754,5.6736593,6.7612257,-0.040317107,0.098043874,-0.06169739,-5.418,-25.718,-15.335,1
0.51834464,6.1704564,6.093842,0.12064589,0.028099801,0.004886922,-5.102,-25.718,-15.652,1
0.088585466,6.413468,6.82946,-0.01160644,0.14355333,-0.0067195175,-4.766,-25.718,-15.652,1
-0.08379706,6.4589577,7.013814,0.17592919,0.29077184,0.07880162,-4.45,-26.1,-15.972,1
-0.6757634,7.08145,6.411672,0.08246681,0.49174652,0.25595254,-4.145,-26.1,-15.972,1
0.42916065,5.707777,8.905233,-0.17562376,-0.18295415,0.30665436,-4.145,-26.1,-15.972,1
0.6781576,5.513248,5.3342814,0.47342056,0.0125227375,0.073303826,-4.145,-25.743,-16.296,1
-0.5746084,5.1487308,6.1638722,0.036651913,0.11056661,-0.06505715,-4.145,-25.743,-16.296,1
-1.2360066,5.2905874,7.353192,-0.31031954,0.33200526,0.18448131,-4.145,-26.057,-15.983,1
-0.46507367,5.905897,7.077859,-0.12767084,0.14996742,0.08277224,-3.836,-26.057,-16.293,1
-0.60453594,5.9603653,5.873575,0.13775012,0.08460484,-0.02076942,-3.527,-26.057,-16.674,1
-0.90979666,5.561132,6.894104,-0.27122417,0.032986723,0.0711658,-3.527,-25.715,-16.992,1
-0.6326678,6.1524997,6.6205664,-0.15668693,-0.08979719,0.08277224,-3.527,-25.027,-17.315,1
-0.29867667,6.501455,6.807314,-0.05497787,-0.15302174,0.18417588,-3.527,-24.356,-17.315,1
-0.5847838,6.467936,6.6044054,0.016187929,-0.19394971,0.0421497,-3.527,-24.356,-17.315,1
-0.23942018,6.4643445,7.0952168,0.092240654,-0.3390302,0.004276057,-4.199,-24.055,-17.315,1
0.03172317,6.4140663,8.405443,-0.23457226,-0.40225476,-0.14935656,-4.908,-24.055,-17.623,1
-0.15801731,5.616797,6.75524,0.2950479,-0.16584991,0.02321288,-5.284,-24.357,-17.623,1
0.9091981,5.276222,6.5643024,0.23060162,-0.13897185,0.08124508,-5.921,-24.755,-17.312,1
0.6667852,4.8123455,6.747459,-0.0027488936,0.20922135,-0.06719518,-5.921,-25.521,-16.961,1
0.29927522,5.647323,7.0221934,-0.029321533,-0.27397305,-0.41325033,-8.831,-19.792,-22.004,1
0.12629414,5.7359085,7.4495587,-0.02107485,-0.18906279,-0.38728857,-9.236,-18.576,-21.669,1
1.1857284,5.616797,7.233482,0.0143553335,-0.0888809,0.03848451,-9.982,-17.813,-20.326,1
0.98102415,5.686229,7.5106106,-0.031154128,0.20647246,-0.100792766,-9.982,-17.813,-19.981,1
0.09756372,5.837064,6.815694,0.18509217,0.14660765,-0.2180789,-9.982,-17.813,-19.674,1
0.42197806,6.021417,6.06571,0.03481932,0.0036651916,-0.116675265,-9.982,-17.813,-19.674,1
-0.15143326,5.433042,6.6026096,-0.1591304,-0.043676864,-0.07269296,-9.664,-18.486,-19.674,1
0.023343466,5.1200004,7.6363063,-0.2959642,-0.057726767,0.052534413,-9.664,-18.486,-19.674,1
0.49799395,5.4659624,7.505822,-0.2180789,-0.21044308,0.19608775,-9.664,-18.133,-19.674,1
1.2024878,5.644929,7.363966,0.023518313,0.0030543262,0.18936823,-9.664,-17.805,-19.674,1
0.24779987,6.201581,6.6486983,0.28924468,0.122478485,0.05467244,-9.664,-17.483,-20.051,1
0.65301853,6.642114,5.789778,-0.29779682,-0.015577064,0.0421497,-9.664,-17.483,-20.051,1
-0.29269117,4.6124296,7.6548615,-0.81122905,0.31948254,-0.3155119,-9.027,-17.483,-20.372,1
0.83497787,4.4005427,8.006809,0.16432275,-0.80848014,0.0036651916,-9.027,-16.342,-21.002,1
0.7882909,4.981137,6.994062,0.24740042,-0.24831672,0.040317107,-9.027,-16.036,-21.002,1
0.85652566,5.4486046,7.4687123,0.0729984,0.10354166,0.13836098,-9.655,-15.731,-20.61,1
1.0426749,5.419874,7.088034,0.2687807,0.29718593,0.084910266,-10.003,-16.076,-20.61,1
0.350152,5.6245785,6.7743936,0.050396383,0.39614612,-0.027794369,-10.003,-16.398,-20.61,1
0.50876784,5.0403934,7.5884223,-0.22296582,-0.013133603,0.03848451,-9.68,-16.398,-20.61,1
0.96665895,5.065532,7.9691005,-0.08399397,-0.09712757,0.008246681,-9.68,-16.398,-20.61,1
0.8439561,5.2768207,7.1634517,0.12034045,-0.10415252,-0.10567969,-9.68,-16.064,-20.61,1
0.39085343,5.4779334,6.950966,0.08582657,-0.040317107,-0.16615535,-9.68,-16.064,-20.61,1
0.19931729,5.418677,7.294534,-0.086437434,0.0015271631,-0.06352998,-9.336,-16.064,-20.61,1
0.39324763,5.1918263,7.323863,0.006414085,0.042760566,0.04428773,-9.336,-16.371,-20.61,1
0.44232875,5.2235494,7.45315,-0.01863139,-0.02687807,-0.006414085,-9.336,-16.371,-20.303,1
0.39803603,5.275025,7.3328414,-0.005192355,-0.074830994,-0.009773844,-8.998,-16.371,-19.976,1
0.6392518,5.2145715,7.361572,-0.016187929,-0.07269296,0.0012217305,-8.998,-16.371,-19.662,1
0.533907,5.111022,7.615956,-0.024740042,-0.048258353,-0.033292156,-8.998,-16.371,-19.662,1
0.5859809,5.2061915,7.323863,0.005192355,-0.048258353,-0.030848695,-8.998,-16.371,-19.662,1
0.35793316,5.2169657,7.5770497,-0.024740042,0.028099801,-0.054367006,-8.679,-16.682,-19.662,1
0.52971715,5.2648497,7.261614,0.01863139,-0.03604105,-0.022602014,-8.679,-16.682,-19.662,1
0.51834464,5.321113,7.211934,0.034513887,-0.018020526,-0.009468411,-8.679,-16.682,-19.662,1
0.41240123,5.153519,7.3669586,-0.070249505,0.035430185,-0.004276057,-8.679,-16.682,-19.662,1
0.6015432,5.2325277,7.3442135,-0.04642576,-0.048258353,-0.003970624,-8.679,-16.682,-19.662,1
0.51595044,5.146935,7.7183075,-0.15851954,0.026572637,-0.028710667,-8.679,-16.682,-19.662,1
0.7404069,4.9422307,7.3100963,0.00580322,-0.089491755,0.00580322,-8.679,-16.682,-19.978,1
0.43155485,5.17387,7.5985975,-0.02321288,0.014660766,-0.07819075,-8.679,-16.346,-19.978,1
0.23223756,5.0882773,7.467515,0.043982297,0.093767814,0.013439035,-8.679,-16.346,-19.978,1
0.480636,5.0092683,7.4286094,0.03634648,0.023823744,0.04062254,-8.374,-16.346,-20.289,1
0.52373165,5.163096,7.4471645,0,-0.0070249503,-0.013133603,-8.374,-16.346,-20.289,1
0.47225627,5.094861,7.4591355,0.028405234,-0.013133603,-0.014049901,-8.374,-16.346,-19.963,1
0.12030864,5.315128,6.7468605,-0.15607607,0.4269948,0.12583824,-8.374,-16.346,-19.963,1
0.44352585,4.5603557,8.209718,-0.03604105,-0.05009095,0.096516706,-8.374,-16.009,-20.332,1
0.142455,4.8853683,7.7410526,-0.0729984,0.018936822,-0.049785517,-8.374,-15.371,-20.652,1
0.46806642,4.7788267,7.499837,0.015882496,-0.008857546,0.008857546,-8.683,-15.037,-20.652,1
0.35314476,4.7925935,7.961918,0.016187929,0.026572637,-0.06872234,-8.683,-15.037,-20.652,1
0.1340753,5.0900726,6.881534,0.2049453,-0.2574797,-0.14813483,-8.683,-15.037,-20.652,1
0.21308395,4.9069166,7.739257,-0.23640485,0.057726767,-0.0061086523,-8.683,-15.037,-20.652,1
0.34835634,4.807557,7.657854,0.035430185,0.010079277,-0.061391957,-8.683,-15.347,-20.652,1
0.0664391,4.993706,7.501034,0.09101892,0.047647487,0.01863139,-8.369,-15.347,-20.652,1
0.34476504,4.882974,7.9170265,0.18203785,0.15332718,0.0143553335,-8.369,-15.347,-20.341,1
-0.07182605,5.298967,7.1939774,0.4071417,0.40194935,-0.046731193,-8.038,-15.67,-20.341,1
-0.52612585,5.6281695,6.7803793,0.21074851,0.24648413,-0.021991149,-7.35,-16.357,-20.341,1
-0.31184477,5.542577,7.049727,0.12156218,0.0852157,0.032070424,-6.707,-17.018,-20.341,1
-0.52852005,5.4617724,6.8665705,0.013133603,0.05131268,-0.022907447,-6.03,-17.344,-20.341,1
-0.46806642,5.6521115,7.4974427,-0.04886922,0.018325957,0,-6.03,-17.344,-20.341,1
-0.3441665,5.6898203,6.83784,-0.0012217305,-0.099265605,0.006414085,-6.03,-17.344,-20.341,1
-0.18854338,5.4922986,7.3088994,-0.10445796,-0.111177474,-0.034208454,-6.388,-17.344,-20.654,1
-0.36990416,5.515642,7.253234,-0.053450707,-0.040317107,-0.04886922,-6.719,-17.344,-20.654,1
-0.26515785,5.41329,7.3083005,-0.061086524,-0.021685716,-0.0027488936,-6.719,-17.344,-20.654,1
-0.18854338,5.448006,7.294534,-0.056505036,-0.053145275,-0.036651913,-6.719,-17.037,-20.654,1
-0.28431144,5.418677,7.303512,-0.054367006,-0.031154128,-0.067500606,-6.719,-17.037,-20.654,1
-0.272939,5.407305,7.3448124,0.009773844,-0.077579886,-0.040011674,-6.719,-16.735,-20.654,1
-0.29688102,5.3516393,7.547721,-0.06994407,-0.124005646,-0.048563786,-6.719,-16.735,-20.654,1
-0.011372458,5.3318872,7.0706763,0.0021380284,-0.27183503,-0.106901415,-7.049,-16.735,-20.654,1
-0.27952304,5.450999,7.180211,-0.1740966,-0.023823744,-0.0421497,-7.368,-16.735,-20.33,1
0.17537527,5.1235914,7.599795,-0.13225232,-0.18020524,0.028405234,-7.368,-16.735,-20.33,1
0.14305355,5.195418,7.4705076,-0.031154128,-0.093767814,-0.040927973,-7.691,-16.424,-20.33,1
0.1352724,5.2600613,7.3029137,-0.03145956,-0.056505036,-0.02076942,-8.006,-16.105,-20.637,1
0.14065935,5.089474,7.5124063,-0.053145275,-0.054367006,-0.01038471,-8.006,-16.105,-20.637,1
0.15741876,5.093664,7.4351935,-0.02321288,-0.025045475,-0.033292156,-8.006,-16.105,-20.333,1
0.02873042,5.079299,7.441777,-0.06627888,0.0027488936,-0.046731193,-8.006,-16.105,-20.333,1
0.008379706,5.018845,7.5764513,-0.04886922,0.0070249503,-0.034208454,-8.006,-15.798,-20.333,1
0.14724341,5.021838,7.548918,0.01985312,-0.025350908,-0.016493361,-8.006,-15.798,-20.333,1
0.24241292,4.975151,8.024167,0.17379116,0.056199603,-0.011911872,-7.702,-15.798,-20.333,1
-0.20709845,5.4917,6.9407907,0.5109888,0.5421429,-0.0021380284,-7.389,-16.131,-20.333,1
-0.88046765,5.770026,6.879739,0.19364429,0.29932398,-0.023823744,-6.704,-16.815,-20.333,1
-0.56443304,5.708974,7.1754227,0.20647246,0.18142697,-0.003970624,-5.601,-17.59,-20.333,1
-0.82599956,6.0226145,6.8067155,0.39187005,0.1731803,0.0012217305,-5.262,-18.286,-20.333,1
-1.4496891,5.6401405,6.71813,-0.4392121,0.24587326,-0.113926366,-4.641,-18.992,-20.019,1
-0.6925228,5.7269306,7.4106526,-0.2929099,-0.17531833,0.02443461,-4.641,-18.992,-20.019,1
-0.4758476,5.556942,7.0587053,-0.14630222,-0.2171626,-0.055588737,-5.015,-18.309,-20.362,1
-0.581791,5.603629,7.100005,0.029626964,-0.102319926,-0.028710667,-5.323,-17.663,-20.362,1
-0.635062,5.6904187,6.994062,-0.063224554,-0.04153884,-0.044593163,-5.677,-17.663,-20.362,1
-0.557849,5.5659204,7.021595,-0.12614368,-0.080634214,-0.041233405,-5.677,-17.663,-20.362,1
-0.5883751,5.3743844,7.2664022,-0.19761491,-0.12950343,-0.028099801,-5.677,-17.356,-20.362,1
-0.36152446,5.313332,7.331644,-0.1328632,-0.11209377,-0.027794369,-5.677,-17.005,-20.362,1
-0.48362875,5.1571107,7.5932107,-0.17745635,-0.09773844,-0.044898596,-6.01,-16.705,-20.709,1
-0.2657564,5.1319714,7.3753386,-0.024740042,-0.1563815,-0.007941248,-6.341,-16.386,-20.709,1
-0.1604115,5.1768627,8.042124,0.24129178,-0.17745635,-0.004581489,-6.69,-16.082,-20.709,1
-0.2693477,5.6563015,6.2979474,0.13591751,-0.20708331,-0.06811147,-7.029,-16.082,-20.709,1
-0.03232172,5.218761,7.7129207,-0.22113322,-0.19242255,0.010995574,-7.337,-16.423,-20.709,1
0.25258827,5.1744685,7.4004774,0.026267206,-0.19364429,-0.004276057,-7.658,-16.423,-20.709,1
0.24061728,5.2744265,7.268198,-0.010079277,-0.12370021,-0.03848451,-8.006,-16.423,-20.402,1
0.24420857,5.258864,7.358579,-0.0693332,-0.07971791,-0.017715093,-8.633,-16.423,-20.083,1
0.34117374,5.1481323,7.475296,-0.03848451,-0.087964594,-0.013439035,-8.633,-16.423,-20.083,1
0.3250129,5.158906,7.4232225,-0.015271631,-0.06780604,-0.02076942,-8.94,-16.423,-20.083,1
0.32800564,5.1780596,7.3220673,0.018020526,-0.0421497,-0.025961773,-8.94,-16.12,-20.083,1
0.3705027,5.1601033,7.3867106,-0.008552114,-0.03145956,-0.014966198,-8.625,-16.12,-20.083,1
0.3453636,5.1918263,7.385514,-0.01160644,-0.017104227,-0.013133603,-8.625,-16.12,-20.083,1
0.33877954,5.1798553,7.4327993,-0.00580322,-0.02443461,-0.01160644,-8.625,-16.12,-19.706,1
0.38187516,5.1361613,7.357382,-0.004010461,0.014448293,-0.005816499,-8.625,-16.12,-19.706,1
0.272939,5.1864395,7.402273,0.0054579508,0.015059158,-0.017117506,-8.625,-16.12,-19.401,1
0.3609259,5.144541,7.467515,-0.060515497,0.016586319,-0.010703421,-8.625,-16.12,-19.705,1
0.39564183,5.113416,7.3549876,-0.023252716,-0.012429781,-0.0039839037,-8.625,-16.12,-20.007,1
0.36511576,5.0822916,7.6321163,-0.06509699,0.022389539,-0.009176258,-8.625,-16.12,-20.007,1
0.4441244,5.0942626,7.4004774,0.0424153,0.006507043,-0.012536017,-8.625,-16.12,-20.007,1
0.29987377,5.142745,7.349601,0.095255144,0.12226601,-0.027196784,-8.625,-16.12,-20.007,1
0.18974048,5.346851,7.3202715,0.0039307876,0.23466522,0.052521132,-8.625,-16.12,-20.007,1
0.27234045,5.2444987,7.374141,0.057076063,0.01780805,-0.0030676052,-8.625,-16.12,-19.691,1
0.28191724,5.1822495,7.489063,-0.068762176,-0.037780687,-0.049798794,-8.625,-16.12,-19.691,1
0.18794483,5.3498435,7.07726,0.0011818937,-0.010902613,-0.024753321,-8.625,-16.12,-19.691,1
0.29149407,5.1559134,7.4896617,-0.00034526922,0.020251513,0.00456821,-8.625,-16.12,-19.691,1
0.1436521,5.203199,7.4986396,0.04272073,0.08317063,-0.035138033,-8.625,-16.12,-20.031,1
-0.110133275,5.4114943,7.234679,0.08609217,0.115546495,-0.0479662,-8.625,-16.12,-20.031,1
0.26874915,5.6305637,5.916671,0.079067215,0.0031472854,0.02564306,-8.297,-16.459,-20.031,1
-0.35553896,5.1678843,8.397662,-0.24408051,-0.017927565,-0.07514971,-7.96,-16.459,-20.031,1
0.0011971008,5.2780175,7.2765775,0.025616504,-0.046943665,-0.014674045,-7.96,-16.459,-20.333,1
0.050876785,5.397129,7.1664443,-0.043716703,0.004063584,0.006706238,-7.96,-16.459,-20.671,1
-0.10594343,5.333084,7.3418193,-0.06692958,-0.031061172,-0.024142455,-7.96,-16.459,-20.339,1
0.12210429,5.1768627,7.267599,-0.046771027,-0.08817706,-0.010092556,-7.96,-16.459,-20.339,1
0.073023155,5.254674,7.328053,-0.073343664,-0.063742466,-0.02108813,-7.96,-16.142,-20.339,1
0.15023616,5.1702785,7.4148426,0.022562178,-0.05213602,-0.020171832,-7.96,-16.142,-20.339,1
0.10055647,5.1840453,7.4908586,-0.044022135,9.2960894e-05,-0.019560967,-8.282,-16.142,-20.339,1
0.11971009,5.2181625,7.340024,-0.011951708,-0.005710259,-0.02933481,-8.282,-16.142,-20.339,1
0.12210429,5.1690817,7.45734,-0.080368616,-0.017316699,-0.021393564,-8.282,-16.142,-20.339,1
0.23163901,5.149329,7.3609734,-0.017144063,-0.03442093,-0.012536017,-8.282,-16.142,-20.339,1
0.10115502,4.819528,7.945757,-0.02142012,-0.064353324,-0.05468572,-8.282,-16.142,-20.339,1
0.14963761,5.450999,6.725911,0.12976903,-0.0726,-0.045522742,-8.282,-16.142,-20.339,1
0.25198972,5.1050367,7.5746555,-0.050436217,0.027887326,0.020145273,-8.282,-16.142,-20.339,1
0.28550854,5.2498856,7.2993226,0.010955738,-0.017622136,-0.032389138,-8.282,-16.142,-20.018,1
0.19692309,5.216367,7.457938,-0.030583099,0.008950505,-0.020477265,-8.587,-16.142,-20.018,1
0.24181437,5.2684407,7.326257,-0.010119113,0.0049798787,-0.015284911,-8.587,-16.142,-20.018,1
0.30406362,5.2444987,7.36636,-0.0027887302,-0.011818916,-0.020782698,-8.892,-16.142,-20.018,1
0.22864626,5.2744265,7.3448124,-0.002177865,0.02361127,-0.025975052,-8.892,-16.142,-20.018,1
0.25677812,5.2798133,7.4723034,0.009123142,0.0043690167,-0.020477265,-8.892,-16.142,-20.018,1
0.15263036,5.270835,7.3406224,-0.018060362,0.0068124756,-0.040941253,-8.892,-16.142,-20.018,1
0.30526072,5.257068,7.28795,0.0020981918,-0.00021247566,-0.012536017,-8.505,-16.452,-20.018,1
0.21308395,5.2863975,7.349002,-3.9836625e-05,-0.0029613674,-0.032083705,-8.505,-16.452,-20.018,1
0.17597382,5.309741,7.4746976,-0.06815131,0.076756544,0.024726762,-8.505,-16.452,-20.018,1
0.39205053,5.3043537,7.1867948,0.09739317,-0.0038776621,0.017090948,-8.505,-16.452,-20.018,1
0.30825347,5.3276973,7.2203135,0.011261171,-0.015484102,0.012204025,-8.505,-16.452,-19.679,1
0.033518825,5.263054,7.425018,-0.036080886,-0.005710259,-0.05499115,-8.505,-16.452,-19.679,1
0.25258827,5.2444987,7.3986816,-0.055323143,0.0068124756,-0.032083705,-8.813,-16.452,-19.679,1
0.23104046,5.2582655,7.3549876,-0.0156169,-0.0038776621,-0.041246682,-8.813,-16.452,-19.679,1
0.20051439,5.269039,7.3466077,-0.10113803,0.0010092556,-0.056518316,-8.813,-16.452,-19.679,1
0.1412579,5.3300915,7.117363,-0.061431795,0.015975457,-0.0021513076,-8.496,-16.452,-19.981,1
0.18255788,5.051167,7.4507556,-0.24316421,-0.14132234,0.0051790755,-8.496,-16.119,-19.981,1
0.51235914,4.8189297,7.8062944,-0.15855938,-0.11719317,0.025032194,-8.496,-15.783,-19.981,1
0.46088383,4.9703627,7.353192,0.0024036246,-0.013956942,-0.02230986,-8.813,-15.454,-19.981,1
0.4189853,4.872799,7.3950906,-0.07670342,-0.0066265613,0.010065997,-8.813,-15.454,-20.309,1
0.52852005,4.697424,7.815273,-0.13107044,-0.03900242,-0.005511067,-8.813,-15.151,-20.309,1
0.45549688,4.678869,7.705738,-0.035775453,0.007728774,-0.018339237,-8.813,-15.151,-20.309,1
0.52492875,4.6920366,7.755418,0.03294689,0.046518717,-0.0039839037,-8.813,-15.151,-20.309,1
0.25079262,4.8027687,7.475296,0.23392154,0.2682628,-0.015590343,-8.494,-15.151,-20.309,1
0.092176765,5.0344076,7.3669586,-0.03547002,-0.0066265613,-0.013757747,-8.158,-15.151,-20.309,1
0.38845924,4.7901993,7.716512,-0.047381893,-0.02281449,-0.023837024,-7.856,-15.46,-20.309,1
0.19931729,4.88058,7.40766,-0.06937304,0.01200483,-0.04002495,-7.856,-15.46,-20.309,1
0.27114335,4.8309007,7.507618,-0.028750503,-0.019149296,-0.020171832,-7.856,-15.46,-20.309,1
0.25079262,4.787206,7.641693,-0.13473563,-0.0008233413,-0.033916302,-7.856,-15.46,-20.309,1
0.1340753,4.643554,7.665635,-0.2355284,-0.036864392,-0.031167407,-7.856,-15.46,-20.309,1
0.36272156,4.485537,7.7943234,-0.039440643,-0.0008233413,0.028086523,-7.856,-15.144,-20.309,1
0.25318682,4.4837413,7.9170265,-0.12923785,0.015670024,-0.035138033,-7.856,-14.834,-20.616,1
0.30705637,4.4603977,7.695563,0.10197466,0.05262737,0.011593161,-7.856,-14.53,-20.616,1
0.16759412,4.6004586,7.8948803,0.11235937,0.14547889,0.0015138835,-7.856,-14.53,-20.616,1
0.22505496,4.745308,7.593809,0.3942737,0.5510934,0.15087043,-7.55,-14.53,-20.616,1
-0.45190558,5.1385555,7.269395,0.3118069,0.4796222,0.008844268,-6.825,-15.202,-20.616,1
-0.75357497,5.3899465,7.2430587,0.12824185,0.25268573,-0.021393564,-5.784,-15.869,-20.254,1
-0.58418524,5.261258,7.358579,0.029281694,0.07492395,0.0030410476,-5.088,-16.194,-20.254,1
-0.55964464,5.2624555,7.4627266,0.11510826,0.057819724,-0.016201207,-4.759,-16.514,-20.254,1
-0.98222125,5.2121773,7.6506715,-0.056239437,0.4835928,-0.028418513,-4.759,-16.514,-20.254,1
-0.8559271,5.6203885,7.195773,0.06593361,0.048351314,0.027475657,-4.759,-16.514,-20.254,1
-0.95109665,5.4019175,7.059902,-0.15275615,-0.07657062,-0.12829499,-4.759,-16.514,-20.254,1
-0.8762778,5.2600613,7.01142,-0.1157988,-0.05916097,-0.07728773,-4.759,-16.514,-20.561,1
-1.0295067,5.117606,7.5070195,-0.099305436,0.026971031,-0.035748895,-4.759,-16.514,-20.945,1
-0.9044097,5.1517234,7.4046674,-0.067235015,0.016891751,-0.03880322,-4.759,-16.174,-20.945,1
-0.84814596,5.120599,7.4202294,-0.084644675,-0.065880485,-0.030861974,-4.759,-16.174,-20.945,1
-0.7733272,4.51307,7.6829934,0.036306646,-0.1859155,-0.068124756,-4.759,-15.856,-20.945,1
-0.98581254,5.3983264,7.1688385,-0.011646276,-0.042056747,-0.08950504,-4.759,-15.856,-20.945,1
-0.6907272,5.0026846,7.6009917,-0.02722334,-0.06954568,0.030529981,-5.076,-15.856,-20.945,1
-0.45310268,5.156512,7.2460513,0.06226842,-0.086955346,-0.00825996,-5.389,-15.856,-20.643,1
-0.7290344,5.207389,7.3430166,-0.015922334,-0.033810064,-0.03422173,-5.696,-15.856,-20.643,1
-0.5506664,5.12838,7.3968863,0.005152518,-0.046638235,-0.016201207,-6.013,-15.856,-20.643,1
-0.6428431,5.254674,7.282563,0.03661208,-0.020676456,-0.031167407,-6.013,-15.856,-20.643,1
-0.47644615,5.175067,7.345411,-0.016227765,-0.025563382,-0.017422939,-6.013,-15.856,-20.643,1
-0.51116204,5.2008047,7.358579,-0.044022135,0.08591953,0.008844268,-6.013,-16.165,-20.643,1
-0.49440265,5.3157263,7.189189,0.036001213,-0.05763381,-0.014368612,-6.013,-16.165,-20.643,1
-0.55725044,5.1571107,7.4806833,-0.11885313,-0.016705833,-0.0198664,-6.013,-16.165,-20.643,1
-0.42916065,5.175067,7.3460093,-0.020503823,-0.0038776621,0.011287728,-6.013,-16.165,-20.643,1
-0.48362875,5.113416,7.3352356,0.011261171,-0.013040647,-0.005816499,-6.327,-16.165,-20.643,1
-0.5781997,5.111022,7.4681134,-0.044022135,0.032774247,-0.020477265,-6.327,-15.859,-20.333,1
-0.51714754,5.0320134,7.6051817,-0.06479155,-0.035031796,-0.06537586,-6.327,-15.859,-20.333,1
-0.52612585,5.258864,7.1221514,0.030197993,0.07278592,-0.005816499,-6.327,-15.859,-20.333,1
-0.3585317,5.020641,7.705738,0.08181611,0.09294447,-0.0039839037,-6.327,-15.859,-20.68,1
-0.8678981,5.3648076,7.16824,0.21834448,0.20503825,-0.047049902,-6.025,-16.215,-20.68,1
-0.7930793,5.453393,7.1047935,0.09036822,0.0987477,0.005789941,-5.712,-16.215,-20.68,1
-0.39923313,5.6305637,5.703587,0.18902294,0.025138434,-0.014368612,-5.712,-16.517,-20.358,1
-1.0965444,5.4791307,7.685986,-0.030583099,0.030636221,-0.07056821,-5.406,-16.853,-20.358,1
-1.0007763,5.4845176,6.986879,-0.12435091,0.054765396,-0.032083705,-4.779,-16.853,-20.358,1
-0.84934306,5.3037553,7.3789296,0.0075959796,-0.08115212,-0.008565392,-4.779,-16.853,-20.993,1
-1.0606314,5.4444146,7.1861963,-0.050436217,-0.027395979,-0.026280485,-4.779,-16.853,-20.993,1
-0.8750807,5.3181205,7.423821,-0.12923785,-0.021592759,-0.018033804,-5.081,-16.853,-20.993,1
-0.7870938,5.2822075,7.1844006,-0.019892957,-0.0726,-0.0012350101,-5.081,-16.853,-20.993,1
-0.7062895,5.1864395,7.571663,0.05982496,-0.11780403,-0.00062414445,-5.081,-16.551,-20.687,1
-0.78888947,5.5431757,6.706159,-0.054712277,-0.027090542,-0.025364187,-5.081,-16.551,-20.687,1
-0.60812724,5.119402,7.5429325,-0.14206602,-0.07962496,-0.007038229,-5.413,-16.551,-20.687,1
-0.58119243,5.2444987,7.255628,-0.0296668,-0.02434165,-0.012536017,-5.413,-16.551,-20.687,1
-0.55844754,5.2115784,7.342418,-0.02019839,-0.004488528,-0.007954528,-5.722,-16.551,-20.687,1
-0.60453594,5.2157683,7.3609734,0.019202419,0.009866804,-0.009176258,-5.722,-16.241,-20.687,1
-0.6003461,5.251083,7.314286,0.03325232,0.011088531,-0.020782698,-5.722,-16.241,-20.687,1
-0.40342298,5.2786164,7.466318,0.05982496,-0.009986319,-0.020171832,-5.722,-16.241,-20.687,1
-0.74758947,5.439028,6.892308,0.28615054,0.26429218,-0.04582817,-5.722,-16.241,-20.687,1
-0.93972415,5.599439,6.743269,-0.17413644,0.044686124,-0.023837024,-5.375,-16.592,-20.687,1
-0.8098387,5.243302,7.735666,-0.006759354,0.03613401,-0.009176258,-5.073,-16.918,-20.687,1
-0.89423436,5.5018754,7.0048356,0.03936097,-0.029839441,-0.033000004,-5.073,-16.918,-20.687,1
-0.8439561,5.437232,7.28795,0.046691354,-0.007848293,-0.0064273644,-5.073,-16.918,-20.329,1
-1.0594343,5.2642508,7.6440873,-0.26973683,0.04590785,-0.07148451,-5.073,-16.918,-20.016,1
-0.7158663,5.4234653,6.529587,0.3945791,-0.07993039,0.03969296,-5.073,-16.918,-20.016,1
-0.79487497,5.511452,7.261614,-0.28806278,0.0055907443,-0.033916302,-5.073,-16.918,-20.333,1
-0.6871359,5.381567,7.2089415,-0.08311751,-0.21370986,0.021061571,-5.378,-16.918,-20.333,1
-0.55126494,5.056554,7.542334,-0.22544912,-0.33893725,0.0009030178,-5.685,-16.918,-20.333,1
