ax,ay,az,gx,gy,gz,mx,my,mz,user
0.27832595,4.38917,9.523536,-0.08827003,-0.7626653,-0.50946164,-39.746,23.335,-51.119,1
-0.54647654,4.6124296,7.681796,-0.050701816,-0.14874569,-0.39400807,-38.908,24.139,-49.485,1
-0.9283517,4.771644,6.393716,-0.1423316,-0.13041973,-0.3191771,-38.555,25.152,-50.61,1
-0.66379243,4.138976,6.8522053,-0.7993172,-0.079107046,0.03756821,-39.178,25.091,-49.942,1
-1.1468226,4.3400893,7.631518,-0.64476824,0.022296581,0.02321288,-38.825,26.602,-50.268,1
-0.6955156,5.4180784,5.3037553,-0.18845193,0.35430184,0.2003638,-38.459,27.554,-50.918,1
-1.1905168,5.853823,6.8863225,0.124005646,0.027794369,0.06872234,-37.719,28.622,-51.243,1
-0.74758947,6.673837,4.655525,0.5549711,-0.4092797,0.064446285,-37.397,28.622,-51.568,1
0.7990648,7.2268977,8.158242,0.08124508,-1.217149,-0.14080444,-38.16,28.622,-51.206,1
0.40222588,6.479308,6.9479733,-0.033292156,0.17195857,-0.28221974,-39.369,27.636,-50.482,1
0.06703765,6.103419,5.6844335,0.25534168,0.25381452,-0.20616703,-39.369,27.296,-50.482,1
-0.20290859,6.365584,6.066907,-0.16432275,-0.13347405,-0.31856623,-39.369,26.976,-50.166,1
0.23942018,5.539584,8.146272,-0.14263703,-0.7440339,-0.72173727,-39.369,26.976,-50.166,1
-1.4377182,5.0900726,6.588843,-0.01863139,-0.2947425,-0.41996986,-39.695,26.976,-50.166,1
0.12928689,5.789778,7.402273,-0.24465153,0.7360926,0.004886922,-40.045,26.976,-50.166,1
-1.6454151,5.3983264,7.047931,-0.22510384,1.4453071,-0.21960606,-38.481,27.301,-50.166,1
-2.0566192,4.909311,7.0407486,-0.6948592,1.2522738,-0.12950343,-35.81,27.938,-50.469,1
-2.2212207,4.3783965,8.3390045,-0.3659083,0.22937989,-0.095294975,-34.886,29.51,-51.142,1
-2.949058,4.0264487,7.318476,-0.0421497,0.42577308,0.20769419,-33.758,30.299,-51.495,1
-3.3051953,3.3686419,6.5828576,-0.16707164,-0.5235115,0.2510656,-32.987,30.686,-51.495,1
-1.4957775,4.143166,8.207922,0.038179077,-1.1490375,0.11575896,-33.306,31.007,-51.495,1
-1.894412,3.8061821,7.3657618,-0.52106804,0.20677789,0.16523905,-34.396,31.007,-51.856,1
-0.8822633,3.1651347,6.3703723,-0.57910025,-1.4611896,0.17989981,-35.481,31.007,-51.856,1
2.9789855,5.843049,7.5213847,1.9214766,-0.067500606,-0.1337795,-38.839,31.324,-51.856,1
-0.7505822,4.7884035,5.7185507,-0.33933565,0.17806722,0.06169739,-38.4,30.432,-51.856,1
0.5105635,3.502717,9.367912,-0.8249735,-1.9529362,0.023518313,-39.134,30.108,-51.502,1
0.39025488,3.5116954,8.641871,0.35979962,0.7486154,0.1863139,-41.087,30.108,-51.177,1
-3.0843303,3.4237084,9.006389,-0.92149025,4.171599,-0.24251351,-36.853,31.231,-51.177,1
-2.1122844,2.8862102,7.9355817,-1.4587462,0.03145956,-0.7415904,-35.218,33.914,-51.489,1
-1.3563153,2.60549,10.69849,0.11209377,1.6960673,-0.18967366,-35.369,35.934,-51.817,1
-2.11827,1.9285295,8.446145,0.6814202,0.26267207,-0.2773328,-34.637,35.934,-52.125,1
-1.9662381,3.0538042,8.446145,0.52503866,-0.1994475,0.1572978,-34.637,35.934,-52.125,1
-1.2653356,3.4171243,7.845799,0.5207626,-0.2519819,0.19120082,-34.286,34.524,-52.125,1
-1.0576386,4.0342298,7.7470384,0.7724391,-0.61391956,0.14660765,-34.991,33.146,-52.125,1
-0.7410054,4.0958805,7.3418193,0.15454891,-0.22510384,-0.22052236,-36.137,31.802,-52.125,1
-1.0097545,4.1695023,8.325836,0.017715093,-0.017104227,-0.10934488,-36.488,31.011,-51.815,1
-0.7410054,4.321534,7.8595657,0.14996742,-0.33261612,-0.002443461,-36.816,30.34,-51.815,1
-0.7152678,4.5441947,8.036138,0.21594086,-0.13439035,0.01282817,-37.145,30.34,-51.815,1
-0.6039374,4.293402,7.877522,-0.1966986,-0.11759156,-0.06963864,-37.782,30.024,-51.815,1
-0.91578215,4.38498,7.8906903,0.15943582,0.19700404,0.0027488936,-37.782,30.024,-51.815,1
-0.7882909,4.6160207,7.2687964,0.1695151,0.1881465,0.024740042,-37.782,30.024,-51.815,1
-0.98461545,4.4562078,7.926005,-0.063224554,0.15332718,0.05100725,-37.431,29.707,-51.815,1
-1.1061212,4.823119,7.316082,0.21899518,0.39064834,0.013133603,-36.753,29.707,-51.815,1
-1.1917139,4.7925935,7.521983,-0.06047566,-0.037873644,-0.06291912,-36.402,29.707,-51.815,1
-1.3275849,4.7896004,7.8290396,0.1386664,-0.0070249503,-0.06719518,-36.091,29.393,-51.815,1
-1.3323733,4.4819455,7.8589673,-0.4456262,0.047036625,-0.13469578,-35.749,29.393,-51.815,1
-1.543063,4.4717703,8.11395,0.043066,-0.007941248,0.0143553335,-35.749,29.393,-51.815,1
-1.4335283,4.597466,6.893505,-0.029321533,-0.10751228,0.02107485,-35.444,29.707,-51.815,1
-1.0139444,4.140772,9.920375,-0.79626286,-0.56596667,-0.0143553335,-35.444,30.07,-51.507,1
-1.1899183,4.048595,7.9852614,-0.09896017,0.12186762,0.02443461,-35.748,30.372,-51.829,1
-0.61112,4.1000705,8.13849,0.044593163,-0.2144137,0.012217305,-36.39,31.069,-51.829,1
-1.0301052,3.942053,8.009802,0.02076942,0.10598512,-0.006414085,-36.39,31.372,-52.14,1
-1.0498575,4.1677065,7.9152308,0.07666359,0.105374254,-0.013133603,-36.39,31.372,-52.14,1
-1.0959458,4.19943,7.691373,0.037873644,0.07544186,-0.1328632,-36.39,31.372,-52.14,1
-0.96187055,4.074931,8.170812,0.038789943,-0.22174409,-0.14782938,-36.39,31.372,-52.14,1
-1.2563573,4.042011,7.929596,0.08093964,-0.0076358155,-0.076358154,-36.39,31.065,-52.14,1
-1.271321,4.2221746,7.934983,0.06383542,0.08857546,0.0012217305,-36.39,31.065,-52.14,1
-1.0163386,4.26527,8.065467,-0.059864793,-0.19822577,0.046731193,-36.085,30.755,-51.834,1
-1.0654198,4.346673,8.080431,-0.021380283,-0.08979719,-0.0033597588,-36.085,30.755,-51.834,1
-1.0444705,4.338892,7.8607626,0.031154128,-0.07452556,-0.016187929,-36.085,30.755,-51.834,1
-1.002572,4.372411,7.487866,-0.015577064,0.009162978,0.00030543262,-36.392,30.755,-51.834,1
-1.1264719,4.243124,7.9726915,-0.04795292,-0.0143553335,-0.02687807,-36.392,30.755,-51.834,1
-1.1109096,4.2556934,7.9876556,-0.04184427,-0.014966198,-0.032070424,-36.392,30.755,-51.834,1
-1.0372878,4.2413282,7.838018,-0.027488936,-0.021685716,-0.0143553335,-36.392,30.755,-51.834,1
-1.0522517,4.2401314,7.8104844,-0.03268129,-0.028710667,-0.024740042,-36.392,30.755,-51.834,1
-1.1019313,4.184466,7.9086466,0.014049901,-0.04153884,-0.0290161,-36.392,30.755,-51.834,1
-1.0384849,4.179079,7.8332295,-0.033292156,-0.036651913,-0.024740042,-36.392,30.755,-52.16,1
-1.1282675,4.123414,8.07265,-0.04428773,-0.035124753,-0.03604105,-36.392,30.755,-52.488,1
-1.1073183,4.1772833,7.9409685,0.010079277,-0.018020526,-0.023518313,-36.392,30.755,-52.488,1
-1.0576386,4.184466,7.8667483,0.005497787,-0.03268129,-0.018936822,-36.392,30.755,-52.488,1
-1.0636241,4.1862617,7.8224554,0.014660766,-0.027794369,-0.027794369,-36.392,30.755,-52.488,1
-1.0271125,4.1940427,7.984064,-0.009468411,0.005192355,-0.028405234,-36.392,30.755,-52.488,1
-1.0618285,4.2371383,7.9092455,0.030848695,-0.009162978,-0.03481932,-36.392,30.755,-52.488,1
-1.0965444,4.2401314,7.7488337,0.03604105,-0.0106901415,-0.02321288,-36.392,30.755,-52.488,1
-1.062427,4.256891,7.81228,0.014966198,-0.0143553335,-0.01985312,-36.392,30.755,-52.488,1
-1.055843,4.3155484,7.888296,-0.004276057,-0.017104227,-0.02107485,-36.392,30.755,-52.488,1
-1.0414777,4.282628,7.9691005,-0.003970624,-0.03970624,-0.032375857,-36.392,30.755,-52.488,1
-1.0181342,4.3077674,7.691373,0.015271631,-0.01038471,-0.033292156,-36.392,30.755,-52.488,1
-1.0755951,4.257489,7.7207017,-0.018325957,-0.016187929,-0.046120327,-36.392,30.755,-52.488,1
-1.1611878,4.320337,7.9708962,-0.031154128,-0.0030543262,-0.039095376,-36.392,30.755,-52.488,1
-1.1366472,4.2479124,7.856573,0.015882496,-0.01985312,-0.019242255,-36.392,30.755,-52.488,1
-1.1318588,4.258686,7.693767,0.03970624,-0.015882496,-0.0076358155,-36.392,30.755,-52.488,1
-1.002572,4.2862196,7.9008656,0.03359759,-0.033292156,-0.039095376,-36.392,30.755,-52.186,1
-1.1444284,4.396951,7.675811,0.032070424,0.016798794,-0.027488936,-36.392,30.755,-52.186,1
-1.1145009,4.349067,7.726089,0.003970624,-0.058337633,-0.04520403,-36.392,30.447,-52.186,1
-1.204882,4.26946,8.018182,-0.006414085,-0.061391957,-0.059864793,-36.392,30.447,-52.186,1
-1.0833763,4.3795934,7.8469963,0.025961773,-0.063224554,-0.010079277,-36.392,30.447,-52.186,1
-1.067814,4.3544545,7.8027034,-0.021991149,-0.060170226,-0.024129177,-36.392,30.447,-52.186,1
-1.0366893,4.3424835,7.739257,-0.0033597588,-0.0061086523,-0.04184427,-36.392,30.447,-51.885,1
-1.210269,4.3317094,7.8092875,-0.03023783,0.010995574,-0.042455133,-36.392,30.447,-51.885,1
-1.1905168,4.359243,7.9182234,-0.03726278,-0.016187929,-0.033292156,-36.392,30.447,-52.198,1
-1.0893618,4.3526587,7.8876977,-0.01160644,-0.0571159,-0.015577064,-36.392,30.447,-52.198,1
-1.0696096,4.3819876,7.6626425,0.00030543262,-0.035430185,-0.0125227375,-36.392,30.447,-52.198,1
-0.99299514,4.3287168,7.9152308,-0.01863139,-0.04428773,-0.016493361,-36.392,30.447,-52.198,1
-1.021127,4.326921,7.7679873,-0.029321533,-0.07086037,-0.01160644,-36.392,30.447,-52.198,1
-0.97743285,4.280833,7.767389,-0.076358154,-0.08093964,-0.034513887,-36.392,30.447,-52.198,1
-0.89184016,4.337096,7.896077,0.025961773,0.006414085,0.025961773,-36.392,30.447,-52.198,1
-0.9259575,4.2317514,7.751827,-0.019547688,-0.076358154,-0.08002335,-36.697,30.447,-52.198,1
-0.8900445,4.220379,7.9325886,-0.025961773,-0.046120327,-0.057726767,-36.697,30.447,-52.198,1
-1.0169371,4.2281604,8.162432,-0.044593163,-0.04520403,-0.023518313,-36.697,30.447,-52.198,1
-1.1246762,4.2784386,7.923012,0.01740966,-0.03023783,-0.022296581,-36.697,30.447,-52.198,1
-0.9103952,4.19105,7.701548,0.009773844,-0.011911872,-0.033292156,-36.697,30.447,-52.198,1
-1.0223241,4.2664676,7.97748,-0.038179077,-0.03604105,-0.0030543262,-36.697,30.447,-52.198,1
-0.82480246,4.299388,7.8493905,-0.0125227375,-0.025961773,-0.023518313,-36.697,30.447,-52.198,1
-0.7613561,4.257489,7.992444,-0.028099801,-0.0693332,-0.022296581,-36.697,30.447,-52.198,1
-0.9139865,4.223372,7.7530236,0.01282817,-0.030543262,0.013744468,-37.008,30.447,-52.198,1
-0.98581254,4.2281604,7.697957,-0.064751714,-0.003970624,-0.03940081,-37.008,30.447,-52.198,1
-0.919972,4.1371803,8.163031,-0.09193522,-0.014660766,-0.050701816,-37.008,30.447,-51.873,1
-0.9391256,4.188656,8.010401,0.0027488936,-0.10140363,-0.046731193,-37.008,30.751,-51.873,1
-0.7721301,4.137779,8.082227,-0.024740042,-0.021380283,-0.04917465,-37.008,30.751,-51.873,1
-0.78769237,4.131195,7.9984293,-0.07422013,-0.022907447,-0.054367006,-37.008,30.751,-51.873,1
-0.7769185,4.1425676,7.9702973,-0.013133603,-0.005192355,-0.060170226,-37.008,30.751,-51.873,1
-1.0079589,4.1276035,7.4992385,0.0571159,0.087964594,0.020158553,-37.008,30.751,-51.873,1
-0.9391256,4.023456,8.025963,0.028099801,-0.02565634,0.0027488936,-37.008,30.751,-51.873,1
-0.82719666,4.1264067,8.15525,-0.0693332,-0.09560041,-0.041233405,-37.008,30.751,-51.873,1
-0.87567925,3.9612067,7.7877398,-0.03756821,0.03604105,0.004581489,-37.008,30.751,-52.175,1
-0.83378077,4.0940847,7.9236107,-0.01863139,-0.0061086523,-0.015882496,-37.008,31.066,-52.175,1
-0.7966706,4.0467997,8.218098,-0.05497787,-0.08124508,-0.014660766,-37.008,31.066,-52.175,1
-0.7493851,4.0294414,7.8727336,-0.025045475,-0.018936822,0.01863139,-37.008,31.066,-51.844,1
-0.96905315,3.750517,8.498219,-0.18570304,-0.062308256,-0.028099801,-37.008,31.066,-51.844,1
-0.40521863,3.894169,8.222886,0.045814894,-0.15790866,-0.07788532,-37.319,31.37,-51.844,1
-0.7074866,3.9665937,7.826047,0.07422013,0.031154128,-0.03726278,-37.319,31.37,-51.844,1
-0.7098808,4.0617633,7.929596,0.009162978,-0.019242255,-0.028099801,-37.319,31.37,-51.844,1
-0.6841431,4.0545807,8.093,0.057421334,-0.020158553,-0.019242255,-37.319,31.37,-51.844,1
-0.7356185,4.099472,7.8847046,0.048563786,-0.011301007,-0.035124753,-37.319,31.37,-51.844,1
-0.6500258,4.1012673,8.106767,0.028099801,-0.017715093,-0.038179077,-37.319,31.37,-51.844,1
-0.6907272,4.177882,7.879916,0.0033597588,0.008552114,-0.022602014,-37.631,31.37,-51.844,1
-0.79966336,4.1677065,7.996035,0.012217305,-0.010995574,-0.035124753,-37.631,31.059,-51.844,1
-0.81522566,4.1701007,7.916428,-0.01740966,-0.04886922,-0.017715093,-37.631,31.059,-51.844,1
-0.6362591,4.2221746,7.941567,-0.057726767,-0.074830994,-0.01740966,-37.631,31.059,-51.844,1
-0.7164649,4.1222167,7.7440453,-0.0693332,-0.005497787,-0.032375857,-37.631,31.059,-51.844,1
-0.74878657,4.0144777,7.9391727,-0.07360926,-0.0076358155,-0.046120327,-37.631,31.059,-51.844,1
-0.7703344,3.9348705,7.9236107,-0.09560041,-0.014966198,-0.07452556,-37.631,31.059,-51.844,1
-0.7062895,3.8977604,8.206725,-0.084910266,-0.044898596,-0.073303826,-37.631,31.362,-51.844,1
-0.85652566,3.9073372,8.073248,0.0009162979,-0.010995574,-0.064751714,-37.631,31.362,-51.844,1
-0.8002619,3.916914,7.996035,0.013133603,-0.015577064,-0.04795292,-37.631,31.669,-51.844,1
-0.7739257,3.879804,8.082825,0.05100725,-0.05009095,-0.025045475,-37.631,31.669,-51.844,1
-0.79487497,3.843891,8.128913,-0.028405234,0.01160644,-0.005497787,-37.631,31.669,-51.844,1
-0.78050977,3.8780081,7.948151,0.024129177,-0.015882496,-0.0711658,-37.631,31.669,-51.844,1
-0.8475474,3.9641995,8.12233,-0.0070249503,-0.03756821,-0.032070424,-37.631,31.669,-51.844,1
-0.75716627,3.9773676,8.001422,-0.0067195175,-0.03634648,-0.009468411,-37.631,31.669,-51.844,1
-0.6811504,3.9312792,7.920019,0.003970624,-0.036957346,-0.026267206,-37.631,31.669,-51.844,1
-0.7308301,3.9827545,7.9385743,-0.004276057,-0.06352998,-0.03145956,-37.631,31.669,-51.844,1
-0.80684596,3.964798,8.065467,0.011301007,-0.023518313,-0.027794369,-37.631,31.669,-51.844,1
-0.7092823,3.9905357,8.018182,0.005192355,-0.03726278,-0.01863139,-37.631,31.358,-51.844,1
-0.7068881,3.9755719,8.177995,-0.003970624,-0.021991149,-0.021685716,-37.631,31.358,-51.844,1
-0.641646,4.0306387,8.090606,-0.008246681,-0.010079277,-0.02107485,-37.631,31.358,-51.844,1
-0.6841431,4.0258503,8.1881695,-0.011911872,-0.004886922,-0.03390302,-37.631,31.358,-52.159,1
-0.7721301,3.9360676,8.040926,-0.017104227,-0.020158553,-0.039095376,-37.631,31.358,-52.159,1
-0.7673417,4.0198646,7.8811135,0.011301007,-0.018325957,-0.019242255,-37.631,31.358,-51.828,1
-0.7374141,4.019266,7.9834657,0.010995574,0.012217305,-0.009773844,-37.631,31.358,-51.828,1
-0.7284359,3.994127,7.8906903,-0.0106901415,-0.0030543262,-0.022602014,-37.631,31.358,-51.828,1
-0.6278794,4.0025067,7.9834657,-0.015577064,-0.0290161,-0.027488936,-37.631,31.358,-51.828,1
-0.7152678,3.9612067,8.055291,-0.047647487,-0.0290161,-0.032070424,-37.631,31.358,-52.133,1
-0.78410107,4.0013094,8.026561,-0.032375857,-0.024740042,-0.046120327,-37.631,31.358,-52.133,1
-0.80086046,3.9396589,8.152257,-0.028405234,-0.029932396,-0.036651913,-37.631,31.358,-52.133,1
-0.78649527,3.9761705,7.937377,-0.0067195175,-0.03756821,-0.025961773,-37.631,31.358,-52.133,1
-0.6955156,3.957017,8.171411,-0.023518313,-0.04153884,-0.03268129,-37.631,31.358,-52.133,1
-0.78290397,3.9468415,8.06008,-0.009468411,-0.014966198,-0.029932396,-37.631,31.358,-52.133,1
-0.78290397,3.913921,8.016386,-0.014966198,-0.009162978,-0.025350908,-37.631,31.358,-52.133,1
-0.7392098,3.9552212,8.053496,-0.021380283,-0.042455133,-0.021685716,-37.631,31.358,-51.799,1
-0.748188,3.964798,7.9876556,-0.008857546,-0.01160644,-0.02076942,-37.631,31.358,-51.799,1
-0.74998367,3.9258924,8.1319065,0.006414085,-0.008552114,-0.02687807,-37.631,31.358,-51.799,1
-0.7344214,3.9336734,8.011598,-0.002443461,-0.018325957,-0.027794369,-37.631,31.358,-51.799,1
-0.8158242,3.911527,7.9786773,-0.017715093,-0.009162978,-0.028099801,-37.631,31.358,-51.799,1
-0.75237787,3.942053,8.016386,-0.013133603,-0.018020526,-0.021380283,-37.631,31.358,-51.799,1
-0.76075757,3.9199066,8.087015,-0.01038471,-0.036957346,-0.0290161,-37.631,31.358,-51.799,1
-0.7697359,3.934272,7.9541364,0.012217305,-0.032986723,-0.025045475,-37.631,31.358,-51.799,1
-0.7380127,3.9641995,8.061277,-0.007330383,-0.024129177,-0.032375857,-37.631,31.358,-51.799,1
-0.78290397,3.9630024,7.8996687,0.0033597588,-0.00061086525,-0.027794369,-37.631,31.358,-51.799,1
-0.8403648,3.8893807,8.011598,0.0012217305,-0.02076942,-0.027183503,-37.631,31.663,-51.799,1
-0.7170634,4.0043025,8.025364,-0.008552114,-0.038789943,-0.018936822,-37.631,31.663,-51.799,1
-0.7625532,3.9384618,7.9942393,0.020463986,-0.03726278,-0.025961773,-37.631,31.663,-51.799,1
-0.79008657,3.9240966,7.912238,-0.004886922,-0.011911872,-0.03970624,-37.631,31.663,-51.799,1
-0.7338228,3.9504328,7.97748,0.015882496,-0.029932396,-0.03145956,-37.631,31.663,-51.799,1
-0.78769237,3.9444473,7.9170265,0.0018325958,-0.01740966,-0.040927973,-37.631,31.663,-51.799,1
-0.80564886,3.9175124,8.106767,-0.0012217305,-0.0290161,-0.03756821,-37.631,31.663,-51.799,1
-0.80086046,3.9133227,8.176797,-0.0061086523,-0.01740966,-0.030543262,-37.631,31.663,-51.799,1
-0.741604,3.9205053,8.030751,0.0021380284,-0.01038471,-0.019242255,-37.631,31.663,-51.799,1
-0.7326257,3.9947255,8.013991,-0.011301007,-0.008246681,-0.027794369,-37.631,31.663,-51.799,1
-0.8050503,3.9336734,8.108562,-0.006414085,-0.022296581,-0.03604105,-37.631,31.663,-51.799,1
-0.8295909,3.940856,7.9146323,0.004886922,-0.0421497,-0.03726278,-37.631,31.663,-51.799,1
-0.83856916,3.8971617,7.963713,0.011911872,-0.025045475,-0.022907447,-37.631,31.663,-51.799,1
-0.8002619,3.9282866,7.735666,-0.027488936,-0.0106901415,-0.020463986,-37.631,31.663,-51.799,1
-0.81761986,3.8845923,8.058883,-0.04428773,0,-0.029932396,-37.631,31.663,-51.496,1
-0.84455466,3.8642416,8.238448,-0.03726278,-0.02565634,-0.028405234,-37.631,31.663,-51.496,1
-0.75716627,3.8546648,8.069058,0.002443461,-0.050396383,-0.03634648,-37.631,31.663,-51.832,1
-0.87208796,3.8863878,8.089409,0.02107485,-0.029321533,-0.047036625,-37.631,31.663,-51.832,1
-0.82899237,3.916914,7.9876556,-0.0012217305,-0.023518313,-0.027183503,-37.631,31.663,-51.832,1
-0.7930793,3.8732197,8.160038,-0.00580322,-0.02076942,-0.021685716,-37.631,31.663,-51.832,1
-0.7248446,4.0294414,8.0606785,0.005192355,0.00061086525,-0.02107485,-37.631,31.663,-51.832,1
-0.7990648,3.9396589,8.082227,0.009773844,-0.02107485,-0.03023783,-37.631,31.663,-52.143,1
-0.81522566,3.9043443,8.107366,-0.009162978,-0.03726278,-0.03145956,-37.631,31.663,-52.143,1
-0.8026561,3.9456444,7.98167,-0.007941248,-0.016493361,-0.032070424,-37.631,31.663,-52.143,1
-0.8379706,3.9438488,8.031349,-0.015882496,-0.026572637,-0.028405234,-37.631,31.663,-52.143,1
-0.8206126,3.9492357,8.11395,-0.014049901,-0.022907447,-0.014660766,-37.631,31.663,-52.143,1
-0.8086416,3.9306808,8.063671,-0.02107485,-0.03848451,-0.025045475,-37.631,31.663,-52.143,1
-0.8182184,3.946243,8.0127945,-0.004276057,-0.035430185,-0.03756821,-37.631,31.663,-52.143,1
-0.8074445,3.945046,8.019379,-0.01160644,-0.025961773,-0.034208454,-37.631,31.663,-52.143,1
-0.79607207,3.9396589,8.0924015,0.002443461,-0.018936822,-0.032375857,-37.631,31.663,-52.143,1
-0.8283938,3.9019501,8.013991,-0.008246681,-0.021991149,-0.02443461,-37.631,31.663,-52.143,1
-0.8559271,3.9109285,7.9930425,-0.0061086523,-0.015882496,-0.018325957,-37.631,31.663,-51.835,1
-0.79487497,3.970185,7.9846625,0.01282817,-0.03145956,-0.022907447,-37.631,31.663,-51.835,1
-0.84575176,3.9665937,8.073847,-0.009773844,-0.033292156,-0.015882496,-37.631,31.663,-51.835,1
-0.8170213,3.9384618,8.093,-0.011301007,-0.052534413,-0.032070424,-37.631,31.663,-52.145,1
-0.82779527,3.9552212,8.090606,0.0012217305,-0.02565634,-0.028405234,-37.631,31.663,-52.145,1
-0.8074445,3.976769,7.902063,-0.00061086525,-0.0125227375,-0.023518313,-37.631,31.663,-52.145,1
-0.78290397,3.9725792,8.041525,0.0009162979,-0.02687807,-0.02107485,-37.631,31.663,-52.145,1
-0.81043726,3.9390604,8.063073,-0.011301007,-0.024740042,-0.013744468,-37.631,31.663,-52.145,1
-0.79607207,3.934272,8.1558485,-0.027794369,-0.03481932,-0.014660766,-37.631,31.361,-52.145,1
-0.81761986,3.9618053,7.951742,0.0015271631,-0.018325957,-0.02107485,-37.631,31.361,-52.145,1
-0.8242039,3.9234982,8.024167,-0.009468411,-0.03756821,-0.037873644,-37.631,31.361,-52.145,1
-0.7978677,3.9989154,8.000824,-0.0033597588,-0.032375857,-0.02565634,-37.631,31.361,-52.145,1
-0.7625532,3.9971197,8.130709,-0.0009162979,-0.023518313,-0.030543262,-37.631,31.361,-52.145,1
-0.79008657,4.024653,7.8529816,0.024129177,-0.014966198,-0.030848695,-37.631,31.361,-51.829,1
-0.81043726,3.930082,7.849989,0.0012217305,-0.009162978,-0.034513887,-37.631,31.361,-51.829,1
-0.8535329,3.9522285,7.955932,-0.03940081,-0.002443461,-0.03970624,-37.631,31.361,-51.829,1
-0.85173726,4.0096893,8.0924015,-0.025045475,-0.02076942,-0.032070424,-37.631,31.361,-52.168,1
-0.84934306,3.9665937,7.98167,-0.0015271631,-0.025350908,-0.017104227,-37.631,31.361,-52.473,1
-0.7577648,3.9228995,7.916428,-0.0021380284,-0.01740966,-0.02443461,-37.631,31.361,-52.473,1
-0.8535329,3.892972,8.079832,-0.017715093,-0.01863139,-0.027183503,-37.631,31.361,-52.169,1
-0.86729956,3.9612067,8.117541,-0.019242255,-0.026572637,-0.03390302,-37.631,31.361,-52.169,1
-0.7721301,3.90614,8.141483,-0.006414085,-0.038179077,-0.023518313,-37.631,31.361,-52.169,1
-0.7906851,3.976769,7.8930845,-0.007330383,-0.03726278,-0.02321288,-37.631,31.361,-52.169,1
-0.87448215,3.9857473,8.167819,-0.006414085,-0.04428773,-0.028710667,-37.631,31.361,-52.169,1
-0.89184016,3.9228995,8.052299,0.02321288,-0.07574729,-0.005497787,-37.631,31.361,-52.169,1
-0.7009025,3.928885,8.118738,0.02443461,-0.07666359,0.02443461,-37.631,31.361,-52.169,1
-0.78050977,3.904943,7.968502,0.0067195175,-0.040317107,-0.019547688,-37.631,31.361,-52.169,1
-0.7128736,3.9989154,7.9541364,-0.007941248,-0.03634648,-0.015577064,-37.631,31.361,-52.169,1
-0.6218939,4.016872,8.043321,0.004886922,-0.04184427,-0.01863139,-37.631,31.361,-51.841,1
-0.57520694,3.9857473,7.9325886,0.009773844,-0.035430185,-0.021685716,-37.631,31.361,-51.841,1
-0.6392518,3.9893386,7.9714947,-0.013133603,-0.03756821,-0.0290161,-37.631,31.361,-51.841,1
-0.6440403,4.004901,8.001422,-0.005497787,-0.012217305,-0.03634648,-37.631,31.361,-51.841,1
-0.87687635,3.8881836,8.212111,-0.01985312,0.042760566,-0.06841691,-37.631,31.361,-51.841,1
-0.7218518,3.9923313,7.900267,0.008857546,0.015271631,-0.0143553335,-37.631,31.361,-51.841,1
-0.58538234,3.9606082,8.241441,-0.0070249503,-0.0125227375,-0.06078109,-37.631,31.361,-52.165,1
-0.89782566,3.9725792,8.027759,0.0070249503,-0.02321288,-0.07452556,-37.631,31.361,-52.497,1
-0.8595184,3.9564183,8.000824,0.022602014,-0.044593163,-0.07422013,-37.631,31.361,-52.497,1
-0.9151836,3.9827545,7.9367785,-0.004581489,-0.04886922,-0.049785517,-37.631,31.361,-52.178,1
-0.91458505,3.9600096,8.079832,0.00030543262,-0.025961773,-0.036651913,-37.631,31.361,-52.178,1
-0.8924387,4.020463,7.9906483,0.020158553,-0.01038471,-0.009468411,-37.631,31.361,-52.178,1
-0.80684596,4.007295,7.8954787,0.029932396,-0.016798794,-0.002443461,-37.631,31.361,-52.178,1
-0.6973112,3.9731777,7.914034,-0.011301007,-0.021380283,-0.014049901,-37.631,31.361,-52.178,1
-0.9175778,4.0402155,7.711724,0.0070249503,0.020158553,-0.03756821,-37.631,31.361,-51.866,1
-0.82240826,4.068946,8.151658,0.009162978,-0.0580322,-0.03268129,-37.631,31.361,-51.866,1
-0.83258367,4.011485,7.852383,0.013133603,-0.05375614,-0.011911872,-37.631,31.361,-51.866,1
-0.78529817,4.035427,7.93199,-0.003970624,-0.034513887,-0.040927973,-37.631,31.361,-51.866,1
-0.8451532,4.0462008,7.9433627,0.0106901415,-0.040927973,-0.06169739,-37.631,31.361,-51.866,1
-0.87089086,4.051588,8.130111,-0.06078109,-0.014049901,-0.008857546,-37.631,31.361,-51.866,1
-0.7679402,4.0120835,8.049306,-0.010995574,-0.06872234,-0.03268129,-37.631,31.361,-51.866,1
-0.80325466,4.055179,7.9631147,-0.022907447,-0.032986723,-0.013133603,-37.631,31.361,-52.175,1
-0.7906851,4.021062,7.965509,0.008246681,-0.013133603,-0.007330383,-37.631,31.361,-52.175,1
-0.7428011,3.9839516,7.887099,-0.0036651916,-0.02321288,-0.018325957,-37.631,31.361,-51.853,1
-0.7727286,3.9402575,8.180987,-0.027794369,-0.014966198,-0.029626964,-37.631,31.361,-51.853,1
-0.7194576,4.003105,8.076241,0.010995574,-0.043982297,-0.021991149,-37.631,31.361,-51.853,1
-0.7733272,3.9588125,7.9188223,-0.00030543262,-0.023518313,-0.02321288,-37.631,31.361,-51.853,1
-0.78888947,4.0306387,7.867945,0.007330383,-0.02107485,-0.011301007,-37.631,31.361,-51.853,1
-0.7745243,4.0019083,8.098388,-0.0125227375,-0.037873644,-0.028710667,-37.631,31.361,-51.853,1
-0.74758947,3.9905357,7.9445596,-0.0061086523,-0.047647487,-0.018325957,-37.631,31.361,-51.853,1
-0.6703765,3.9612067,7.9984293,-0.01038471,-0.042455133,-0.0036651916,-37.631,31.361,-51.853,1
-0.55365914,4.0054994,7.8589673,-0.027183503,-0.02321288,-0.03970624,-37.944,31.361,-51.853,1
-0.78649527,3.9282866,8.085817,-0.049785517,-0.00580322,-0.062002823,-37.944,31.361,-51.554,1
-0.712275,3.9109285,8.14268,-0.020158553,-0.0421497,-0.03359759,-37.944,31.663,-51.554,1
-0.7942764,3.8953662,7.881712,-0.002443461,-0.02076942,-0.024129177,-37.944,31.663,-51.872,1
-0.7757214,3.8792052,8.20433,-0.022907447,-0.030543262,-0.022602014,-37.944,31.663,-52.177,1
-0.74399817,3.9312792,8.052897,-0.0015271631,-0.014966198,-0.020158553,-37.944,31.663,-52.177,1
-0.7038953,3.8965633,8.08462,-0.00061086525,-0.011301007,-0.02443461,-37.944,31.663,-52.177,1
-0.7386112,3.8977604,8.051102,-0.0015271631,-0.0106901415,-0.032070424,-37.944,31.663,-52.177,1
-0.75357497,3.8893807,8.169615,0.005497787,-0.009773844,-0.04520403,-37.619,31.663,-52.177,1
-0.82240826,3.8911762,8.317456,0.020463986,-0.021685716,-0.036957346,-37.619,31.663,-52.177,1
-0.7858967,3.9199066,7.9906483,0.06169739,-0.0036651916,-0.034513887,-37.619,31.663,-52.177,1
-0.8283938,3.9133227,8.033744,0.05681047,-0.018325957,-0.04153884,-37.619,31.663,-52.177,1
-0.88645315,4.061165,7.9278,0.059864793,0,-0.04062254,-37.619,31.347,-52.177,1
-0.9672575,4.138976,8.103176,0.06169739,0.004886922,-0.012217305,-37.619,31.347,-52.177,1
-0.8846575,4.2119994,7.9074497,0.09315695,-0.0076358155,0.0021380284,-37.619,31.347,-52.177,1
-0.92176765,4.345476,8.473679,0.06261369,-0.01282817,0.04062254,-37.619,31.022,-51.864,1
-0.760159,4.526837,8.412626,0.18509217,0.009162978,0.04642576,-37.619,31.022,-51.564,1
-0.6805518,4.549582,8.55987,0.28069258,-0.043676864,0.048563786,-37.619,30.705,-51.564,1
-0.88166475,4.533421,7.9756846,0.34300083,0.053145275,0.015577064,-37.619,30.03,-51.564,1
-0.7835025,4.8255134,7.6027875,0.40744713,-0.008552114,-0.0070249503,-37.619,29.379,-51.564,1
-0.770933,5.254674,7.404069,0.22235495,-0.067500606,-0.042760566,-37.295,28.668,-51.564,1
-0.6302736,5.6245785,7.0144124,0.29535335,-0.05131268,0.12522738,-37.295,28.03,-51.216,1
-0.51954174,5.9519854,6.223129,0.38515055,-0.07971791,0.004276057,-37.295,27.676,-50.871,1
-0.5506664,6.001665,6.431424,0.17470746,-0.16982053,0.07727446,-37.295,26.982,-50.54,1
-0.05327099,6.184223,6.11539,-0.024740042,-0.27885997,0.22235495,-37.6,26.652,-50.239,1
-0.3226187,6.1064115,6.9611416,0,0.13591751,0.05467244,-37.942,26.35,-50.239,1
-0.5279215,6.1824274,6.967127,0.14630222,0.14080444,-0.044898596,-37.942,26.35,-49.899,1
-0.5327099,5.9280434,5.6640825,0.36132678,0.09773844,-0.07391469,-37.942,26.35,-49.899,1
-0.17537527,6.287772,5.952584,0.2098322,0.06169739,0.073303826,-37.942,26.04,-49.899,1
-0.47524905,6.6163764,6.3422403,0.02687807,0.08674286,-0.02565634,-37.641,25.74,-49.899,1
-0.42796355,6.697779,5.7400985,0.028405234,0.03390302,-0.020463986,-37.301,25.422,-49.899,1
-0.3657143,6.8079123,6.0609217,-0.16493362,0.06352998,-0.0027488936,-37.301,25.422,-49.581,1
-0.25019407,6.700772,6.3230867,-0.1554652,-0.01282817,-0.14905111,-37.301,25.422,-49.885,1
-0.52971715,6.2434793,6.4386067,-0.16798794,-0.087659165,-0.118507855,-37.301,25.756,-49.885,1
-0.6733692,6.269816,6.7187285,-0.13988814,-0.1142318,-0.064751714,-37.301,26.069,-49.885,1
-1.3198037,5.544971,7.6009917,-0.22235495,-0.017104227,-0.0143553335,-37.301,26.368,-49.885,1
-0.88645315,5.4521956,7.4082584,-0.07574729,0.014966198,0.008552114,-37.301,26.707,-49.885,1
-0.2693477,4.569334,7.2987237,-0.089186326,-0.09162979,0.040317107,-37.301,27.037,-50.219,1
-0.40222588,5.2606597,6.009446,0.00580322,-0.1160644,0.07941248,-37.301,27.037,-50.559,1
-1.0486604,5.2355204,7.8733325,-0.2706133,-0.03268129,-0.01282817,-37.301,27.366,-50.248,1
-0.5069722,5.662287,8.535928,-0.15271631,0.14538592,-0.03726278,-37.301,27.674,-50.248,1
-0.35793316,5.1487308,8.406641,-0.018020526,-0.01740966,-0.10598512,-37.301,28.004,-49.929,1
-0.61530983,5.427655,6.6965823,0.18234327,0.007330383,0.05955936,-37.301,28.004,-50.238,1
-0.64463884,5.3079453,6.8839283,0.03390302,-0.045814894,0.014966198,-37.301,28.004,-50.582,1
-0.44592008,5.783194,7.507618,-0.026267206,0.060170226,-0.0143553335,-37.301,28.004,-50.582,1
-0.49440265,5.6305637,7.8116817,0.046731193,0.009162978,-0.049785517,-37.301,27.703,-50.241,1
-0.6787562,5.5168395,6.749853,0.20189096,0.01160644,0.08155051,-37.301,27.703,-50.241,1
-0.6159084,5.657499,6.7468605,0.05497787,0.0143553335,0.0027488936,-37.301,27.384,-50.544,1
-0.49679685,5.7305217,7.0036387,-0.01038471,0.0067195175,-0.059253927,-36.988,27.384,-50.196,1
-0.40521863,6.2943563,7.318476,-0.004276057,-0.049785517,0.0729984,-36.988,27.384,-50.196,1
-0.21667525,5.8628016,7.029376,0.119729586,-0.13041973,-0.06780604,-36.988,27.082,-50.196,1
-0.44592008,5.8125234,6.284181,0.1423316,-0.12675454,-0.0842994,-36.988,27.082,-50.196,1
-0.7691373,5.7825956,6.5469446,0.0027488936,-0.06536258,-0.12614368,-36.988,26.77,-50.196,1
-0.8996213,6.005855,7.043741,-0.08460484,0.076358154,-0.028710667,-37.292,26.77,-49.885,1
-0.6356605,5.9867015,7.117962,-0.024129177,0.13775012,0.0027488936,-37.292,26.77,-49.885,1
-0.6422446,5.789778,6.956353,-0.10048734,0.04734206,0.0012217305,-37.292,26.77,-50.202,1
-0.59017074,5.771822,6.8623805,-0.06261369,-0.10445796,0.038789943,-36.984,26.77,-50.202,1
-0.6500258,5.6545057,7.280169,-0.013744468,-0.109650314,-0.05131268,-36.984,26.77,-50.202,1
-0.7320272,5.740697,7.2885485,0.01740966,-0.06811147,-0.1133155,-36.984,27.082,-50.202,1
-0.50876784,5.993884,6.7043633,0.06291912,0.004581489,-0.07574729,-36.984,27.082,-50.202,1
-0.51116204,5.699397,7.1233487,-0.1414153,-0.21319197,-0.07880162,-36.984,27.082,-50.202,1
-0.51834464,5.4605756,7.363966,-0.1685988,-0.11148291,-0.04917465,-37.297,27.082,-50.202,1
-0.54887074,5.6347537,7.1371155,-0.07452556,-0.032375857,-0.015882496,-37.297,27.082,-50.541,1
-0.19871874,5.671265,7.2843585,-0.013744468,-0.038789943,0.04550946,-37.297,27.082,-50.541,1
-0.39683893,5.6497173,7.357382,0.049785517,-0.06841691,-0.03604105,-37.297,27.412,-50.219,1
-0.45729253,5.6946087,6.894104,0.007330383,0.05955936,0.043066,-37.603,27.412,-50.219,1
-0.5518635,5.6221843,7.438186,-0.05681047,0.04795292,0.04062254,-37.603,27.412,-50.219,1
-0.42197806,5.5683146,7.240066,-0.019547688,0.021991149,-0.03145956,-37.603,27.412,-50.219,1
-0.7110779,5.5940523,7.0209966,-0.0027488936,-0.06261369,-0.06536258,-37.603,27.412,-50.219,1
-0.350152,5.775413,6.987478,-0.03390302,-0.03604105,-0.010079277,-37.603,27.412,-50.219,1
-0.57161564,5.6102133,7.2580223,-0.08246681,0.050701816,-0.045814894,-37.603,27.412,-50.219,1
-0.6925228,5.499481,7.15567,0.03390302,-0.0030543262,-0.016187929,-37.603,27.412,-50.219,1
-0.76075757,5.6161985,6.7947445,0.07574729,-0.042760566,-0.11362094,-37.603,27.412,-50.219,1
-0.074818805,5.482722,6.066907,0.2602286,-0.14721853,-0.0720821,-37.603,27.412,-50.219,1
-0.40162733,5.819706,7.0844426,0.0693332,-0.09560041,0.08032878,-37.603,27.412,-50.526,1
-0.4914099,5.6682725,7.1275387,-0.007941248,0.0012217305,0.02443461,-37.603,27.412,-50.526,1
-0.4285621,5.708974,7.21373,0.013439035,0.0033597588,0.019547688,-37.603,27.412,-50.526,1
-0.7032967,5.725135,7.0664864,0.05375614,0.03726278,0.0067195175,-37.603,27.412,-50.526,1
-0.39085343,5.729325,7.1065893,0.044898596,0.06841691,-0.0009162979,-37.603,27.412,-50.526,1
-0.4201824,5.8651958,6.851008,0.060170226,0.007330383,0.026267206,-37.603,27.412,-50.178,1
-0.42796355,5.7005944,7.0036387,-0.005497787,-0.03848451,-0.02076942,-37.295,27.412,-50.178,1
-0.4213795,5.8161144,7.1472907,-0.006414085,-0.043676864,-0.026267206,-37.295,27.102,-50.178,1
-0.46746787,5.831078,6.9264255,-0.0061086523,-0.018936822,-0.03023783,-37.295,27.102,-50.178,1
-0.54527944,5.7646394,6.953959,0.022602014,-0.010995574,-0.029932396,-37.295,27.102,-50.178,1
-0.44651863,5.849633,7.0503254,-0.0021380284,-0.028405234,-0.021380283,-37.295,27.102,-50.537,1
-0.3705027,5.819107,6.8210807,0.012217305,-0.023518313,-0.042760566,-37.295,27.102,-50.537,1
-0.41060558,5.781399,6.935404,0.00580322,0.00580322,-0.014660766,-37.295,27.102,-50.537,1
-0.5859809,5.8544216,6.827665,-0.0070249503,-0.0030543262,-0.027794369,-37.295,27.102,-50.537,1
-0.5243302,5.761048,7.1586633,-0.03573562,-0.032070424,-0.016187929,-37.295,27.102,-50.196,1
-0.62608373,5.7879825,7.055712,-0.0012217305,-0.012217305,-0.062308256,-37.295,27.102,-50.196,1
-0.55006784,5.841852,6.941389,-0.004886922,-0.018325957,-0.036957346,-37.295,27.102,-50.196,1
-0.6326678,5.7808,6.861782,-0.02687807,0.02687807,-0.0143553335,-37.295,27.102,-50.196,1
-0.54767364,5.8693852,6.9844847,-0.0012217305,-0.018325957,-0.0030543262,-37.295,27.102,-49.836,1
-0.57760113,5.8262897,7.0646906,0.004581489,-0.033292156,-0.0030543262,-37.295,27.102,-49.836,1
-0.47405192,5.819107,7.019201,-0.015882496,-0.04153884,-0.016187929,-37.295,27.102,-49.836,1
-0.40402153,5.8304796,7.0156097,-0.022907447,-0.036957346,-0.032375857,-37.295,27.102,-50.143,1
-0.5009867,5.7921724,7.069479,-0.014660766,-0.05222898,-0.03176499,-37.295,27.102,-50.143,1
-0.4794389,5.881955,7.0263834,-0.02443461,-0.035124753,-0.014966198,-37.295,27.102,-50.143,1
-0.5566519,5.744887,7.041347,-0.009162978,-0.017104227,-0.014660766,-37.295,27.102,-50.143,1
-0.48722005,5.7784057,6.9222355,-0.02107485,-0.025350908,-0.024740042,-37.295,27.102,-50.143,1
-0.5351041,5.752668,7.07726,-0.01160644,-0.03145956,-0.040011674,-37.295,27.102,-50.143,1
-0.3812766,5.851429,7.102998,-0.012217305,-0.047647487,-0.04184427,-37.295,27.102,-50.143,1
-0.54168814,5.7658362,7.0904284,-0.008857546,-0.040011674,-0.03848451,-37.295,27.102,-50.143,1
-0.57161564,5.744887,7.008427,-0.008857546,-0.03176499,-0.027794369,-37.295,27.102,-49.803,1
-0.45429978,5.810129,7.0527196,-0.026572637,-0.032986723,-0.027794369,-37.295,27.102,-49.803,1
-0.53809685,5.799355,7.0994067,-0.011911872,-0.03604105,-0.0421497,-37.295,27.102,-49.803,1
-0.5398925,5.805939,6.9808936,0.016493361,-0.032070424,-0.040011674,-37.295,27.102,-49.803,1
-0.46746787,5.777209,7.029975,0.0070249503,-0.03268129,-0.025961773,-37.295,27.102,-49.803,1
-0.5117606,5.761048,7.031172,-0.011301007,-0.030848695,-0.015271631,-37.295,27.102,-50.126,1
-0.55365914,5.8005524,6.9928646,0.0018325958,-0.019547688,-0.03145956,-37.295,27.102,-50.126,1
-0.45250413,5.7646394,7.0940194,-0.008857546,-0.040011674,-0.02107485,-37.295,27.102,-50.126,1
-0.47165772,5.7879825,6.88752,0.007941248,-0.024129177,-0.030543262,-37.295,27.102,-50.126,1
-0.46986207,5.846042,7.013814,0.013744468,-0.022296581,-0.03023783,-37.295,27.102,-50.126,1
-0.47644615,5.8532248,6.951565,0.010079277,-0.014966198,-0.028099801,-37.295,27.102,-50.126,1
-0.49559975,5.8119245,6.915053,-0.003970624,-0.009773844,-0.03970624,-37.295,27.102,-50.126,1
-0.52852005,5.849633,7.0126166,-0.014966198,-0.014966198,-0.032375857,-37.295,27.102,-50.126,1
-0.533907,5.8238955,6.995259,-0.009162978,-0.018936822,-0.03023783,-37.295,27.102,-50.126,1
-0.5141548,5.879561,6.9102645,0.0061086523,-0.004886922,-0.02443461,-37.295,27.102,-50.126,1
-0.44711718,5.8107276,7.080253,-0.009773844,-0.01863139,-0.029932396,-37.295,27.102,-50.126,1
-0.53450555,5.8292828,7.0395517,-0.032070424,-0.011301007,-0.02443461,-37.295,27.102,-50.126,1
-0.53809685,5.8304796,7.015011,-0.016798794,-0.034513887,-0.03023783,-37.295,27.102,-49.816,1
-0.5153519,5.7736173,7.020398,-0.009162978,-0.04184427,-0.02321288,-37.295,27.102,-49.816,1
-0.41359833,5.8520274,6.987478,-0.0030543262,-0.061086524,-0.022602014,-37.295,27.102,-50.181,1
-0.46986207,5.7784057,6.952163,0,-0.02107485,-0.03268129,-37.295,27.102,-50.495,1
-0.49320555,5.8065376,7.020398,-0.015577064,-0.01985312,-0.029321533,-37.295,27.102,-50.495,1
-0.5434838,5.7538652,7.1263413,-0.015577064,-0.018936822,-0.038789943,-37.295,27.102,-50.495,1
-0.50278234,5.825093,6.952163,-0.006414085,-0.038179077,-0.032375857,-37.295,27.102,-50.495,1
-0.52073884,5.8107276,7.117962,-0.02076942,-0.035430185,-0.02321288,-37.295,27.102,-50.495,1
-0.5069722,5.787384,7.0461354,-0.004581489,-0.03023783,-0.021991149,-37.295,27.102,-50.193,1
-0.4830302,5.783793,7.028179,-0.008857546,-0.033292156,-0.032986723,-37.295,27.102,-50.193,1
-0.51475334,5.8119245,6.901885,-0.0036651916,-0.027794369,-0.040927973,-37.295,27.102,-50.193,1
-0.53809685,5.8041434,7.1071877,-0.01863139,-0.031154128,-0.036651913,-37.295,27.102,-50.193,1
-0.5351041,5.7784057,6.965331,0.004581489,-0.028710667,-0.032070424,-37.295,27.102,-50.193,1
-0.5279215,5.6886234,6.980295,-0.018020526,-0.03359759,-0.01863139,-37.295,27.102,-50.193,1
-0.5081693,5.907094,7.033566,-0.026572637,-0.028710667,-0.021685716,-37.295,27.102,-50.193,1
-0.5638345,5.7867856,7.268198,-0.017104227,-0.03848451,-0.04550946,-37.295,27.102,-50.193,1
-0.56203884,5.752668,6.994062,0.025045475,-0.01985312,-0.038179077,-37.295,27.102,-50.193,1
-0.5518635,5.677251,6.795343,-0.007330383,-0.03023783,-0.034513887,-37.295,27.102,-50.193,1
-0.54288524,5.8244944,7.1939774,-0.03268129,-0.013744468,-0.008857546,-37.295,27.102,-50.193,1
-0.58119243,5.844845,7.07726,-0.0106901415,-0.01985312,-0.03023783,-37.295,27.102,-50.193,1
-0.52253455,5.758055,7.1820064,-0.0009162979,-0.03390302,-0.010995574,-37.295,27.102,-50.193,1
-0.48243165,5.699397,7.038953,0.0018325958,-0.025961773,-0.029321533,-37.295,27.102,-49.885,1
-0.58897364,5.751471,6.940192,-0.020158553,-0.018325957,-0.0290161,-37.295,27.102,-49.885,1
-0.5823896,5.7496753,7.0862384,-0.00030543262,-0.058643065,-0.03756821,-37.295,27.102,-49.885,1
-0.51595044,5.6982,7.119757,0.0070249503,-0.061391957,-0.01985312,-37.295,27.102,-49.885,1
-0.4381389,5.7125654,6.9605427,0.0030543262,-0.015577064,-0.029626964,-37.295,27.102,-50.192,1
-0.5374983,5.7802014,7.083844,-0.035430185,0.008857546,-0.036957346,-37.295,27.102,-50.192,1
-0.5847838,5.7125654,7.107786,0,-0.017104227,-0.03970624,-37.295,27.102,-50.5,1
-0.5351041,5.7478795,7.091027,-0.0012217305,-0.015577064,-0.035430185,-37.295,27.102,-50.5,1
-0.53689975,5.7095723,7.256227,-0.0070249503,-0.055283304,-0.014660766,-37.295,27.102,-50.5,1
-0.5069722,5.7389016,7.0048356,-0.0018325958,0.0018325958,-0.027183503,-37.295,27.102,-50.5,1
-0.57281274,5.6987987,7.1131735,-0.025045475,-0.017715093,-0.032070424,-37.295,27.102,-50.199,1
-0.5153519,5.7347116,7.0227923,-0.009773844,-0.033292156,-0.032070424,-37.295,27.102,-50.199,1
-0.65182143,5.725135,7.0341644,-0.013439035,-0.009773844,-0.046120327,-37.295,27.102,-50.199,1
-0.54767364,5.6766524,7.089231,-0.007330383,-0.03726278,-0.025961773,-37.295,27.102,-50.199,1
-0.57400984,5.6736593,7.089231,-0.0018325958,0.0018325958,-0.025961773,-37.295,27.102,-50.199,1
-0.61411273,5.6096144,7.098808,-0.020158553,-0.011301007,-0.018020526,-37.295,27.102,-50.199,1
-0.6159084,5.685032,7.116166,-0.015577064,-0.0061086523,-0.023518313,-37.295,27.102,-50.199,1
-0.6003461,5.6586957,7.1688385,-0.01038471,-0.0061086523,-0.03390302,-37.295,27.102,-50.199,1
-0.59136784,5.671265,7.0820484,0,-0.023823744,-0.025961773,-36.99,27.102,-50.199,1
-0.56802434,5.6485205,7.0832458,-0.0036651916,-0.0421497,-0.028099801,-36.99,27.102,-50.514,1
-0.5883751,5.674258,7.053318,-0.010079277,-0.021991149,-0.01985312,-36.99,27.102,-50.514,1
-0.6584055,5.671265,7.0874357,-0.005497787,-0.012217305,-0.021991149,-36.99,27.102,-50.514,1
-0.5895722,5.644929,7.0940194,-0.0030543262,-0.040317107,-0.023823744,-36.99,27.412,-50.514,1
-0.5895722,5.6323595,7.15986,-0.017715093,-0.035124753,-0.021685716,-36.99,27.412,-50.514,1
-0.65421563,5.6551046,7.098808,-0.024129177,-0.038179077,-0.022907447,-36.99,27.412,-50.514,1
-0.5746084,5.66528,7.1885905,-0.019242255,-0.03756821,-0.01160644,-36.99,27.412,-50.514,1
-0.53689975,5.631162,7.125743,0.010079277,-0.035430185,-0.02076942,-37.3,27.412,-50.514,1
-0.46267948,5.762245,6.9485717,0.008857546,-0.030848695,-0.019242255,-37.3,27.412,-50.514,1
-0.48362875,5.6880245,6.9701195,-0.0143553335,-0.01282817,-0.027488936,-37.3,27.412,-50.201,1
-0.5859809,5.583877,7.253234,-0.044593163,-0.03848451,-0.032070424,-37.3,27.412,-50.201,1
-0.4770447,5.671265,7.1664443,-0.01038471,-0.05100725,-0.02107485,-37.3,27.412,-50.509,1
-0.45848963,5.6700683,7.149685,-0.010995574,-0.049785517,-0.01740966,-37.3,27.412,-50.509,1
-0.5231331,5.679645,7.091027,0.0018325958,-0.035124753,-0.023518313,-37.3,27.412,-50.17,1
-0.51595044,5.6646814,7.083844,-0.015577064,-0.025350908,-0.022296581,-37.3,27.412,-50.17,1
-0.5315128,5.6545057,7.0515227,-0.0021380284,-0.0021380284,-0.0143553335,-37.3,27.412,-49.865,1
-0.42556936,5.659893,7.138911,0.012217305,-0.010079277,-0.01282817,-37.3,27.412,-49.865,1
-0.45190558,5.6664767,7.140108,-0.0125227375,0.014966198,0.0015271631,-37.3,27.412,-49.865,1
-0.47285482,5.708974,6.941988,0.01160644,0.005497787,-0.007330383,-37.3,27.412,-50.177,1
-0.4441244,5.57849,7.062895,-0.015882496,-0.020463986,-0.027183503,-37.3,27.412,-50.177,1
-0.545878,5.595848,7.1526775,-0.039095376,-0.02076942,-0.03573562,-37.3,27.412,-50.177,1
-0.44113165,5.710171,7.1131735,0.005192355,-0.042455133,-0.046731193,-37.3,27.412,-50.177,1
-0.6751649,5.553351,7.167641,-0.029626964,-0.02443461,-0.046120327,-37.3,27.412,-50.177,1
-0.50637364,5.687426,7.116166,-0.0015271631,-0.0021380284,-0.024129177,-37.3,27.412,-50.502,1
-0.39983168,5.5880666,7.20535,-0.013133603,-0.06872234,-0.020463986,-37.3,27.412,-50.502,1
-0.58538234,5.631761,7.035362,-0.0027488936,-0.035430185,-0.042455133,-37.3,27.412,-50.152,1
-0.4878186,5.616797,7.2747817,-0.02687807,-0.039095376,-0.03390302,-37.3,27.412,-49.818,1
-0.45729253,5.695207,7.019799,0.028405234,-0.02565634,-0.033292156,-37.3,27.412,-49.818,1
-0.65421563,5.4922986,7.1107793,-0.021685716,-0.03726278,-0.044898596,-37.3,27.412,-49.818,1
-0.44831428,5.7574563,7.0449386,0.016187929,-0.030543262,-0.021685716,-37.3,27.412,-49.818,1
-0.46028528,5.5282116,7.2634096,-0.014049901,-0.040011674,-0.023823744,-37.3,27.412,-49.818,1
-0.49559975,5.677251,7.193379,-0.007330383,-0.028710667,-0.019547688,-37.3,27.412,-49.818,1
-0.46267948,5.627571,7.0862384,0.00030543262,-0.02076942,-0.02687807,-37.3,27.412,-49.818,1
-0.4381389,5.6604915,7.140108,0.00580322,-0.02687807,-0.03756821,-37.3,27.412,-49.818,1
-0.45429978,5.6156,7.0347633,-0.00580322,-0.04184427,-0.05497787,-37.3,27.412,-49.818,1
-0.46806642,5.6425347,7.2634096,-0.02107485,-0.05131268,-0.03756821,-37.3,27.412,-50.125,1
-0.45669398,5.692813,7.0407486,-0.0021380284,-0.03756821,-0.036957346,-37.3,27.412,-50.125,1
-0.5967548,5.627571,7.2209125,-0.018325957,-0.02321288,-0.03756821,-37.3,27.412,-50.125,1
-0.4177882,5.683835,6.9665284,0.027794369,-0.015577064,-0.033292156,-37.3,27.412,-50.125,1
-0.5374983,5.5623293,7.1490865,-0.016798794,-0.020463986,-0.049785517,-37.3,27.412,-50.125,1
-0.45070848,5.7107697,7.0581064,-0.0027488936,-0.016798794,-0.036957346,-37.3,27.412,-50.125,1
-0.66738373,5.517438,7.2101383,-0.019547688,-0.005497787,-0.029321533,-37.3,27.412,-50.125,1
-0.4770447,5.6257753,7.109582,-0.0030543262,-0.024740042,-0.028710667,-37.3,27.412,-50.125,1
-0.6943185,5.4779334,7.1754227,-0.03359759,-0.022907447,-0.0290161,-37.3,27.412,-50.439,1
-0.5315128,5.650316,7.157466,-0.004276057,-0.027794369,-0.023518313,-37.3,27.719,-50.439,1
-0.56443304,5.478532,7.233482,-0.008246681,-0.026267206,-0.021380283,-37.3,27.719,-50.439,1
-0.5363012,5.6443305,7.247847,-0.008857546,-0.01282817,-0.02443461,-37.3,27.719,-50.439,1
-0.581791,5.4917,7.0994067,-0.01160644,-0.021685716,-0.022907447,-37.3,27.719,-50.439,1
-0.55246204,5.6407394,7.203554,-0.014966198,-0.03023783,-0.03023783,-37.3,27.719,-50.096,1
-0.50996494,5.539584,7.3286514,-0.026267206,-0.09896017,-0.0015271631,-37.3,27.719,-50.096,1
-0.40043023,5.6203885,6.977901,0.014660766,-0.05009095,-0.048258353,-37.3,27.719,-50.096,1
-0.48841715,5.5671177,7.4088573,-0.046120327,-0.050701816,-0.014966198,-37.3,27.719,-50.448,1
-0.40402153,5.6120086,7.0940194,0.02321288,-0.0018325958,-0.023518313,-37.3,27.719,-50.448,1
-0.4818331,5.429451,7.1939774,-0.016493361,0,-0.03023783,-37.3,27.719,-50.448,1
-0.5494693,5.580884,7.3729444,-0.044593163,-0.011301007,-0.009468411,-37.3,27.719,-50.448,1
-0.38307226,5.5419784,7.2544312,-0.0015271631,-0.037873644,-0.04337143,-37.3,27.719,-50.448,1
-0.5650316,5.5347958,7.305308,-0.01160644,-0.0290161,-0.03940081,-37.3,27.719,-50.448,1
-0.42916065,5.6096144,7.0970125,0.03023783,-0.014049901,-0.028710667,-37.3,27.719,-50.448,1
-0.6703765,5.410896,7.2394676,-0.04795292,-0.028099801,-0.045814894,-37.3,27.719,-50.448,1
-0.46507367,5.680842,7.1490865,0.009162978,-0.0125227375,-0.027183503,-37.3,27.719,-50.448,1
-0.5931635,5.449203,7.243657,-0.006414085,-0.034513887,-0.03390302,-37.3,27.719,-50.448,1
-0.45429978,5.6365495,7.0395517,0.019547688,-0.01740966,-0.04337143,-37.3,27.719,-50.448,1
-0.5093664,5.533599,7.3442135,-0.03756821,-0.04917465,-0.017715093,-37.3,27.719,-50.448,1
-0.4830302,5.5707088,7.237672,0.00030543262,-0.0021380284,-0.025961773,-37.3,27.719,-50.448,1
-0.60812724,5.4647655,7.183802,-0.021380283,-0.011911872,-0.02565634,-37.3,27.719,-50.448,1
-0.533907,5.571906,7.21373,-0.008552114,-0.014660766,-0.02565634,-37.3,27.719,-50.448,1
-0.53211135,5.4486046,7.314286,-0.026267206,-0.03268129,-0.023518313,-37.3,27.719,-50.448,1
-0.4866215,5.6126075,7.1191587,0.004886922,-0.022907447,-0.01985312,-37.3,27.719,-50.448,1
-0.4997896,5.5084596,7.179612,0.005497787,-0.027794369,-0.02076942,-37.3,27.719,-50.448,1
-0.52852005,5.5467668,7.189788,-0.015577064,-0.021685716,-0.040317107,-37.3,27.719,-50.448,1
-0.4758476,5.643732,7.2472486,-0.0125227375,-0.045814894,-0.018936822,-37.3,27.719,-50.448,1
-0.54168814,5.533599,7.265804,0.00030543262,-0.016187929,-0.023823744,-37.3,27.719,-50.77,1
-0.516549,5.57849,7.199963,-0.0015271631,-0.03359759,-0.018020526,-37.3,27.719,-50.77,1
-0.49200845,5.5802855,6.976105,0.013744468,-0.03268129,-0.027183503,-37.3,27.719,-50.77,1
-0.5626374,5.511452,7.326257,-0.011911872,-0.040011674,-0.044593163,-37.3,27.719,-50.77,1
-0.43035775,5.6389437,7.129334,0.015271631,-0.030543262,-0.023823744,-37.3,27.719,-50.77,1
-0.45609543,5.60722,7.1844006,-0.009468411,-0.026267206,-0.02321288,-37.3,27.719,-50.77,1
-0.3824737,5.6670756,7.1347213,0.0012217305,-0.017104227,-0.016187929,-37.3,27.719,-50.77,1
-0.56084174,5.5844755,7.2699933,-0.015577064,-0.014660766,-0.038789943,-37.3,27.719,-50.77,1
-0.45370123,5.649119,7.071873,0.01282817,-0.03390302,-0.034208454,-37.3,27.719,-50.77,1
-0.49081135,5.583278,7.259818,-0.015882496,-0.0421497,-0.03390302,-37.3,27.719,-50.77,1
-0.5315128,5.614403,7.165247,-0.005497787,-0.021685716,-0.014966198,-37.3,27.719,-50.462,1
-0.45489833,5.5563436,7.1185603,-0.015577064,-0.028405234,-0.028710667,-37.3,27.719,-50.462,1
-0.47046062,5.638345,7.28376,-0.03145956,-0.013439035,-0.018325957,-37.3,27.719,-50.462,1
-0.5255273,5.5581393,7.025785,-0.0125227375,-0.024740042,-0.038179077,-37.3,27.719,-50.462,1
-0.46327803,5.5922565,7.252037,-0.011911872,-0.040927973,-0.040011674,-37.3,27.719,-50.462,1
-0.48362875,5.554548,7.2262993,-0.019242255,-0.039095376,-0.017715093,-37.3,27.719,-50.462,1
-0.48362875,5.5270147,7.1963716,-0.015882496,-0.021380283,-0.02687807,-37.3,27.719,-50.462,1
-0.4381389,5.631162,7.225701,-0.0067195175,-0.03604105,-0.014966198,-37.3,27.719,-50.462,1
-0.46806642,5.5551467,7.234679,-0.008552114,-0.023823744,-0.030848695,-37.3,27.719,-50.462,1
-0.46387658,5.569512,7.147889,-0.008552114,-0.03481932,-0.033292156,-37.3,27.719,-50.462,1
-0.439336,5.5641246,7.2424603,0.0021380284,-0.040927973,-0.027183503,-37.3,27.719,-50.781,1
-0.48243165,5.5820813,7.1634517,-0.0067195175,-0.03573562,-0.024740042,-37.3,27.719,-50.781,1
-0.4902128,5.571307,7.1808095,-0.011301007,-0.04184427,-0.031154128,-37.3,27.719,-50.781,1
-0.4321534,5.5880666,7.187992,0.0061086523,-0.016187929,-0.022296581,-37.606,27.719,-50.781,1
-0.46267948,5.529409,7.177218,0.018246278,0.06924024,-0.043809656,-37.606,27.719,-50.781,1
-0.43155485,5.5946507,7.1706343,0.007250704,0.0744326,-0.034035813,-37.606,27.719,-50.781,1
-0.45010993,5.5880666,7.1945763,0.006639838,0.06954568,-0.025178267,-37.606,27.719,-50.781,1
-0.4237737,5.5431757,7.116166,0.024660364,0.055495776,-0.0395336,-37.606,27.719,-50.781,1
-0.44592008,5.5737014,7.165247,0.024049498,0.03900242,-0.04655855,-37.606,27.719,-50.781,1
-0.40043023,5.5946507,7.2113357,0.024049498,0.036864385,-0.04655855,-37.606,27.719,-50.781,1
-0.48482585,5.6030307,7.0940194,0.035655938,0.071378276,-0.041060764,-37.606,27.719,-50.781,1
-0.44711718,5.5521536,7.1849995,0.021911468,0.06007727,-0.04411509,-37.606,27.719,-50.463,1
-0.4333505,5.5982423,7.253833,0.018857144,0.04877626,-0.04655855,-37.606,27.719,-50.463,1
-0.51595044,5.565322,7.2514386,0.019773442,0.05060886,-0.05114004,-37.606,27.719,-50.463,1
-0.50876784,5.577293,7.0766616,0.03382334,0.07198914,-0.03831187,-37.606,27.719,-50.77,1
-0.46986207,5.5725045,7.234679,0.016108248,0.06679678,-0.04411509,-37.606,27.719,-50.77,1
-0.43634325,5.5778913,7.1407065,0.03687767,0.07229457,-0.040144466,-37.298,27.719,-50.77,1
-0.46088383,5.569512,7.177817,0.01732998,0.04205674,-0.04411509,-37.298,27.719,-50.77,1
-0.5177461,5.5820813,7.162853,0.014886519,0.0753489,-0.033119515,-37.298,27.719,-50.77,1
-0.56802434,5.521029,7.2065473,-0.0040503033,0.055190347,-0.047169417,-37.298,27.719,-50.77,1
-0.53450555,5.6161985,7.1472907,0.025882093,0.0463328,-0.03159235,-37.298,27.719,-50.77,1
-0.40462008,5.5910597,7.2185183,0.026798392,0.03625352,-0.04411509,-37.298,27.719,-50.453,1
-0.47285482,5.6018333,7.1502833,0.018551711,0.053663183,-0.04319879,-37.298,27.719,-50.453,1
-0.4770447,5.5725045,7.0365586,0.016108248,0.05335775,-0.045031387,-37.298,27.719,-50.453,1
-0.4854244,5.5748987,7.16824,0.012748491,0.049387127,-0.04442052,-37.298,27.719,-50.453,1
-0.5955577,5.5443726,7.145495,0.023744065,0.059466403,-0.04991831,-37.298,27.719,-50.772,1
-0.4854244,5.5826797,7.1347213,0.025882093,0.053052317,-0.036784705,-37.298,27.719,-50.772,1
-0.4321534,5.5503583,7.313089,0.01732998,0.04755453,-0.03373038,-37.298,27.719,-51.092,1
-0.48243165,5.535394,7.1383123,0.016719114,0.045416504,-0.059081286,-37.298,27.719,-51.092,1
-0.51235914,5.5587378,7.315483,-0.01168612,0.040835015,-0.05969215,-37.298,27.719,-50.791,1
-0.53211135,5.5521536,7.2765775,0.013970221,0.055190347,-0.051750906,-37.298,27.719,-50.791,1
-0.50397944,5.5497594,7.228095,0.0231332,0.05580121,-0.04686398,-37.298,27.719,-50.791,1
-0.52732295,5.5946507,7.183802,0.027103825,0.07382174,-0.028538026,-37.298,27.719,-50.791,1
-0.5542577,5.519832,7.244256,0.029852718,0.053663183,-0.03373038,-37.298,27.719,-50.791,1
-0.4441244,5.5880666,7.0862384,0.04268089,0.03472636,-0.029148892,-37.298,27.719,-50.791,1
-0.516549,5.5737014,7.149685,0.017024547,0.02861771,-0.036173843,-37.298,27.719,-50.791,1
-0.52732295,5.6239796,7.1484876,0.023744065,0.020981893,-0.033119515,-37.298,27.719,-50.415,1
-0.46327803,5.6161985,7.079056,0.036572237,0.04480564,-0.042282492,-37.298,27.719,-50.415,1
-0.44711718,5.559935,7.2460513,0.015802817,0.027090542,-0.045947686,-37.298,27.719,-50.415,1
-0.49919105,5.5365915,7.065888,0.019162577,0.021592759,-0.040144466,-37.298,27.719,-50.415,1
-0.44592008,5.587468,7.0994067,0.0023637824,0.01853843,-0.04442052,-37.599,27.719,-50.752,1
-0.33518824,5.573103,7.3322425,0.0045018103,0.009375453,-0.026399996,-37.599,27.719,-50.752,1
-0.40162733,5.5988407,7.086837,0.02771469,0.061298996,-0.023040239,-37.599,27.719,-50.752,1
-0.3286042,5.5581393,7.2364745,0.026187526,0.06374246,-0.03281408,-37.599,27.719,-50.752,1
-0.30526072,5.593454,6.9252286,0.1514149,0.008459151,-0.027316295,-37.599,27.719,-50.752,1
-0.3465607,5.6006365,7.282563,0.03840483,-0.0068124756,-0.05572153,-37.599,27.719,-50.451,1
-0.3812766,5.61141,7.0886326,0.031990744,0.012124345,-0.054194365,-37.94,27.719,-50.451,1
-0.29747957,5.6431336,7.29214,0.0017529167,0.02281449,-0.048085712,-38.244,27.719,-50.451,1
-0.31124622,5.6545057,7.2298903,-0.0040503033,0.07504347,-0.035562977,-38.244,27.719,-50.776,1
-0.3489549,5.6365495,7.065289,0.010915896,0.08603904,-0.036479272,-38.244,27.719,-50.776,1
-0.3573346,5.6185927,7.121553,-0.006493766,0.087566204,-0.059081286,-38.548,27.719,-50.776,1
-0.37229836,5.626374,7.116166,0.05581449,0.072905436,-0.049612876,-38.548,27.719,-50.776,1
-0.40940848,5.54557,7.0168066,0.02557666,0.0603827,-0.045947686,-38.548,27.719,-50.776,1
-0.39564183,5.5419784,7.3968863,-0.033677265,0.078708656,-0.03373038,-38.548,27.719,-50.776,1
-0.5177461,5.6161985,7.0467343,0.024049498,0.07504347,-0.036173843,-38.548,27.719,-50.776,1
-0.48123455,5.5162406,7.2143283,0.013970221,0.06771308,-0.048391145,-38.236,27.719,-50.776,1
-0.49081135,5.57849,7.1724296,0.019773442,0.067102216,-0.052972637,-38.236,27.719,-50.776,1
-0.44891283,5.5701103,7.325659,0.036572237,0.045111068,-0.049612876,-38.236,27.719,-50.776,1
-0.46148238,5.5910597,7.197569,0.0371831,0.039918713,-0.043809656,-38.236,27.719,-50.776,1
-0.4770447,5.5976434,7.0275807,0.029852718,0.051830586,-0.04625312,-38.236,27.719,-50.776,1
-0.46447513,5.5940523,7.245453,0.012137625,0.05060886,-0.04442052,-38.236,27.719,-50.776,1
-0.42197806,5.5419784,7.1251445,0.013359357,0.042667605,-0.048696578,-38.236,27.719,-50.776,1
-0.21068975,5.8663926,6.1046157,0.16088331,0.28273764,-0.082294166,-37.922,27.719,-50.463,1
0.05267244,6.2345014,7.3885064,0.10590544,-0.7496246,0.295526,-37.922,27.719,-50.463,1
0.53330845,5.5018754,8.497022,-0.2887135,-0.57400084,-0.099703826,-38.241,27.719,-50.463,1
0.12449849,5.2444987,7.789535,-0.12500161,0.16728412,-0.053583503,-39.421,27.719,-50.463,1
0.50996494,5.521628,7.3699512,0.009694165,0.08420645,-0.0404499,-39.762,27.719,-50.463,1
0.035314474,5.312135,6.809708,0.08177626,0.06924024,-0.07557465,-39.762,27.719,-50.463,1
0.6135142,5.20679,6.9838862,0.057647087,0.010597184,0.0765308,-39.762,27.719,-50.463,1
1.0127473,5.875371,7.599196,0.010915896,-0.14578432,0.014527973,-39.762,27.719,-50.463,1
0.45250413,5.6000376,7.368156,-0.02695775,0.15751028,-0.034341246,-40.414,27.719,-50.463,1
0.52732295,5.463568,7.1209545,0.14225192,0.09123139,-0.053278066,-40.414,27.719,-50.463,1
0.4261679,5.5503583,7.114969,0.050622135,0.04297304,-0.055110663,-40.414,27.719,-50.463,1
0.4297592,5.643732,7.1939774,0.026798392,0.051830586,-0.03831187,-40.414,27.719,-50.463,1
0.45370123,5.571906,7.3047094,0.024660364,0.060993567,-0.05205634,-40.728,27.719,-50.463,1
0.45370123,5.5844755,7.129933,0.050316703,0.056717508,-0.050834607,-40.728,27.719,-50.463,1
0.39743748,5.555745,7.062895,0.094299,0.073210865,-0.07221489,-40.728,27.719,-50.463,1
0.3333926,5.6102133,7.2963295,-0.0016068425,0.04480564,-0.062441047,-40.728,27.719,-50.463,1
0.3716998,5.6539073,7.053917,0.059479684,0.05457948,-0.059386723,-40.728,27.719,-50.82,1
0.36152446,5.697003,7.228095,0.035045072,0.04602737,-0.037701003,-40.728,27.719,-50.82,1
0.42317516,5.7604494,7.1832037,0.062534004,0.06160443,-0.027010862,-40.728,27.719,-50.518,1
0.3866636,5.805939,7.1155677,0.07322415,0.10467043,-0.037701003,-40.728,27.41,-50.518,1
0.40222588,5.837064,7.228095,0.03840483,0.054884914,-0.047780283,-40.728,27.41,-50.518,1
0.3842694,5.7999535,6.999449,0.024660364,0.038086116,-0.049612876,-40.728,27.41,-50.518,1
0.40043023,5.771223,7.053917,0.048178673,0.03167203,-0.041060764,-40.728,27.41,-50.518,1
0.49679685,5.8586116,7.135918,0.0026692152,0.028006844,-0.029148892,-40.728,27.41,-50.195,1
0.34356794,5.8484364,7.144298,-0.0022177063,0.07382174,-0.03464668,-40.728,27.41,-50.195,1
0.3345897,5.817312,7.0844426,0.041153725,0.04785996,-0.03464668,-40.728,27.41,-50.195,1
0.40222588,6.301539,6.577471,0.08147083,0.18622094,0.007808458,-40.728,27.41,-50.195,1
0.34715924,5.865794,7.0862384,0.012137625,0.05702294,-0.031286918,-40.728,27.41,-50.195,1
0.30107087,5.896919,7.0329676,0.022827767,0.042362176,-0.024567401,-40.728,27.107,-50.195,1
0.3842694,5.817312,7.0826473,0.00083661824,0.0331992,-0.031286918,-40.728,27.107,-50.195,1
0.27114335,5.8322754,7.0503254,-0.012602419,0.016400404,-0.034035813,-40.728,27.107,-50.535,1
0.4985925,5.740697,7.515399,-0.13477546,0.044500202,-0.0025762543,-40.728,27.107,-50.885,1
0.44951138,5.861006,6.827665,-0.043451108,0.07260001,0.011168215,-40.728,27.107,-50.885,1
0.24181437,5.6203885,6.918046,0.030769015,0.14834729,-0.04625312,-40.728,27.416,-50.534,1
0.23762453,5.629367,7.1472907,0.011832193,0.112000816,-0.030065188,-40.417,27.416,-50.534,1
0.26635495,5.6748567,7.2322845,0.003280079,0.07504347,-0.030676054,-40.417,27.416,-50.534,1
0.22744916,5.5964465,7.103596,-0.019932799,0.10955735,-0.019985912,-40.417,27.416,-50.534,1
0.18794483,5.6946087,7.2262993,0.0075561367,0.10314327,-0.021207642,-40.115,27.416,-50.534,1
0.17537527,5.6724625,7.0503254,0.021606037,0.10008894,-0.03739557,-40.115,27.717,-50.534,1
0.13227965,5.605425,7.307702,-0.024208855,0.04480564,-0.032203216,-40.115,27.717,-50.84,1
0.15502456,5.625177,7.2083426,-0.00954809,0.058855537,-0.030370621,-39.805,27.717,-50.84,1
0.16400282,5.563526,7.1472907,0.0060289726,0.060688134,-0.035257544,-39.805,27.717,-50.84,1
0.10474633,5.6030307,7.1233487,0.016413681,0.057633806,-0.033119515,-39.489,27.717,-50.84,1
0.19692309,5.5886655,7.3537903,0.020384306,0.038391553,-0.04075533,-39.489,27.717,-50.84,1
0.13587095,5.5946507,7.1826053,0.017940845,0.06374246,-0.051445473,-39.489,27.717,-50.84,1
0.13108255,5.547365,7.256227,0.021911468,0.056106642,-0.04900201,-39.489,27.717,-50.84,1
0.089184016,5.5383873,7.1927805,0.003280079,0.05213602,-0.042282492,-39.176,27.717,-50.84,1
0.12030864,5.583278,7.2406645,0.017635413,0.062215295,-0.042587925,-39.176,27.717,-50.84,1
0.06404489,5.5820813,7.1885905,0.008167002,0.06160443,-0.030370621,-39.176,27.717,-50.84,1
0.15442601,5.589264,7.29214,0.035655938,0.031061165,-0.028538026,-39.176,27.717,-50.84,1
0.12749124,5.6126075,7.077859,0.028020121,0.049692556,-0.037090138,-39.176,27.717,-50.84,1
0.13347675,5.5778913,7.2622123,0.017635413,0.050914288,-0.025178267,-39.176,27.717,-50.84,1
0.05865794,5.554548,7.116166,0.024965797,0.06496419,-0.030676054,-39.176,27.717,-50.84,1
0.15861586,5.489306,7.2227077,-0.002828572,0.044194773,-0.030981487,-38.87,27.717,-50.84,1
0.15801731,5.569512,7.1903863,0.014886519,0.05580121,-0.036173843,-38.87,27.717,-50.84,1
0.13587095,5.5659204,7.301717,0.00083661824,0.053052317,-0.04442052,-38.87,27.717,-50.84,1
0.15203181,5.568913,7.2646065,0.009083299,0.029228576,-0.04625312,-38.87,27.717,-50.84,1
0.17118542,5.535993,7.1730285,0.009999597,0.016400404,-0.04625312,-38.87,27.717,-50.84,1
0.16160862,5.5467668,7.2460513,0.009999597,0.03716982,-0.0395336,-38.87,27.717,-50.84,1
0.078410104,5.57849,7.1790137,0.026492959,0.071683705,-0.033424947,-38.87,27.717,-50.84,1
0.16938977,5.539584,7.153875,0.029547285,0.06618592,-0.033119515,-38.87,27.717,-50.84,1
0.17118542,5.544971,7.2167225,0.014886519,0.06465876,-0.042282492,-38.87,27.717,-50.84,1
0.05925649,5.5258174,7.1526775,0.013664789,0.07687606,-0.048696578,-38.87,27.717,-50.84,1
0.10115502,5.599439,7.227496,0.021606037,0.044194773,-0.047780283,-38.87,27.717,-50.84,1
0.1592144,5.5084596,7.319673,0.02527123,0.01853843,-0.04319879,-38.87,27.717,-50.84,1
0.14784196,5.5701103,7.1849995,0.015191952,0.067102216,-0.033424947,-38.87,27.717,-50.84,1
0.14305355,5.583877,7.2981253,0.0231332,0.07748693,-0.0395336,-38.87,27.717,-50.84,1
0.08379706,5.561132,7.2322845,0.026492959,0.0603827,-0.042282492,-38.87,27.717,-50.84,1
0.12629414,5.5431757,7.240066,0.017940845,0.05213602,-0.05022374,-38.87,27.717,-50.84,1
0.1364695,5.5617304,7.2227077,0.026798392,0.039918713,-0.049307443,-38.87,27.717,-50.84,1
0.09816227,5.5264163,7.156269,0.0038909446,0.043583907,-0.042893358,-38.87,27.717,-50.524,1
0.078410104,5.507861,7.3699512,-0.0025231391,0.017316699,-0.052972637,-38.87,27.717,-50.524,1
0.11492168,5.490503,7.285556,0.017940845,0.028923139,-0.055416096,-38.87,27.717,-50.524,1
0.074818805,5.501277,7.2029557,0.014275654,0.045416504,-0.047780283,-38.87,27.717,-50.524,1
-0.06284779,5.506664,7.1927805,-0.0058829,0.07107285,-0.0404499,-38.87,27.717,-50.883,1
0.11611878,5.486912,7.359776,0.022216901,0.027090542,-0.034035813,-38.87,27.717,-51.211,1
0.14425065,5.5288105,7.275979,0.026492959,0.021287322,-0.041060764,-38.87,27.717,-51.211,1
0.19093758,5.519832,7.338228,0.016108248,0.036864385,-0.05572153,-38.87,27.717,-50.88,1
0.2100912,5.48332,7.2687964,0.0078615695,0.018233001,-0.043504223,-38.87,27.717,-50.88,1
0.093373865,5.4899044,7.1945763,0.013664789,0.051219724,-0.05236177,-38.87,27.717,-50.88,1
0.036511578,5.4917,7.3442135,0.014581086,0.045416504,-0.05114004,-38.87,27.717,-50.88,1
-0.02813187,5.4761376,7.3472066,0.02771469,0.059466403,-0.032203216,-38.87,27.717,-50.88,1
0.055066638,5.5587378,7.2310877,0.028020121,0.089093365,-0.0062414445,-38.87,27.717,-50.88,1
0.13587095,5.4964886,7.2526355,0.031990744,0.08542818,-0.005019713,-38.87,27.717,-50.88,1
0.2136825,5.521029,7.156269,0.048178673,0.06618592,-0.027316295,-38.87,27.717,-50.88,1
0.24361002,5.4725466,7.133524,0.014275654,0.04480564,-0.038006436,-38.87,27.717,-50.88,1
0.1400608,5.5006785,7.321469,-0.039480485,0.043889336,-0.047474846,-38.87,27.717,-50.88,1
-0.053869538,5.551555,7.3100963,-0.0034394376,0.07229457,-0.055416096,-38.87,27.717,-50.88,1
0.073023155,5.479729,7.1867948,0.019773442,0.041140445,-0.03831187,-38.87,27.717,-50.88,1
0.14903906,5.5222263,7.2765775,0.017940845,0.05335775,-0.027621727,-38.87,27.717,-50.88,1
0.14544775,5.530606,7.2729864,0.026492959,0.07046197,-0.030981487,-38.87,27.717,-50.88,1
0.12629414,5.4922986,7.177817,0.0231332,0.069851115,-0.041671626,-38.87,27.717,-50.88,1
0.10055647,5.433042,7.233482,0.020995172,0.061298996,-0.041366197,-38.87,27.717,-50.88,1
0.073621705,5.4605756,7.2233067,0.016719114,0.05457948,-0.052972637,-38.87,27.717,-50.558,1
0.0005985504,5.429451,7.355586,-0.000690544,0.03747525,-0.047474846,-38.87,27.717,-50.558,1
0.0023942017,5.469554,7.20954,0.017024547,0.06465876,-0.03464668,-38.87,27.717,-50.863,1
0.06404489,5.4246626,7.354389,0.004807243,0.0603827,-0.03464668,-38.87,27.717,-50.863,1
0.054468088,5.4701524,7.1113777,0.030463584,0.06771308,-0.0386173,-38.87,27.717,-50.863,1
0.0676362,5.383961,7.374141,-0.008020926,0.06526962,-0.036173843,-38.87,27.717,-51.162,1
0.022146367,5.45459,7.2364745,-0.004355736,0.08206841,-0.033119515,-38.87,27.717,-50.839,1
0.020949265,5.4061074,7.3669586,-0.0016068425,0.04908169,-0.03739557,-38.87,28.019,-50.839,1
-0.008379706,5.430648,7.3071036,0.012748491,0.04908169,-0.036173843,-38.87,28.019,-50.839,1
0.089184016,5.3923407,7.361572,0.026187526,0.04175131,-0.0404499,-38.87,28.019,-50.839,1
0.06284779,5.419874,7.3071036,0.009999597,0.050914288,-0.03739557,-38.87,28.019,-50.839,1
-0.012569559,5.3462524,7.277775,0.0075561367,0.059466403,-0.047169417,-38.87,28.019,-50.839,1
0.026934769,5.433641,7.304111,0.011221327,0.06465876,-0.032203216,-38.87,28.019,-50.839,1
0.0011971008,5.41748,7.235876,0.028630987,0.050303422,-0.03831187,-38.87,28.019,-50.529,1
0.035314474,5.4204726,7.3962874,0.01732998,0.050914288,-0.036173843,-38.87,28.019,-50.529,1
0.08259996,5.427655,7.3328414,0.030463584,0.04297304,-0.047474846,-38.87,28.019,-50.529,1
0.12509704,5.4498014,7.215525,0.036572237,0.0331992,-0.05816499,-38.87,28.019,-50.529,1
0.073621705,5.4049106,7.393295,0.022827767,0.018843867,-0.041060764,-38.87,28.019,-50.529,1
-0.05865794,5.4138885,7.228095,0.017635413,0.05824467,-0.03464668,-38.87,28.019,-50.529,1
0.013766659,5.357625,7.374141,0.015191952,0.06588049,-0.041671626,-38.87,28.019,-50.857,1
-0.033518825,5.4085016,7.291541,0.01030503,0.062215295,-0.03586841,-38.87,28.019,-50.857,1
0.04369418,5.394735,7.365163,-0.004661169,0.031061165,-0.041366197,-38.545,28.019,-50.857,1
0.065242,5.403713,7.368156,0.032907043,0.049387127,-0.05236177,-38.545,28.019,-50.857,1
0.08738836,5.429451,7.3208704,0.0371831,0.026785113,-0.042282492,-38.545,28.019,-50.857,1
0.049081136,5.4282537,7.2993226,0.015497385,0.03625352,-0.043504223,-38.545,28.019,-50.857,1
0.0011971008,5.383961,7.347805,0.0026692152,0.041140445,-0.043809656,-38.545,28.019,-50.518,1
0.011372458,5.430648,7.2646065,0.014275654,0.05793924,-0.038006436,-38.545,28.019,-50.518,1
0.038905777,5.366603,7.282563,0.009388732,0.06007727,-0.04686398,-38.545,28.019,-50.518,1
-0.060453594,5.379771,7.314286,-0.019321933,0.07473803,-0.035257544,-38.545,28.019,-50.827,1
0.02633622,5.4234653,7.301118,0.00083661824,0.0603827,-0.045947686,-38.545,28.019,-51.158,1
0.05267244,5.3474493,7.316082,0.021606037,0.029534005,-0.04319879,-38.545,28.019,-51.158,1
0.013766659,5.4043117,7.2490444,0.015191952,0.06313159,-0.04686398,-38.545,28.019,-51.158,1
0.027533319,5.4091,7.356185,0.037488535,0.054884914,-0.04411509,-38.545,28.019,-51.158,1
-0.019153614,5.3767786,7.20116,0.03840483,0.0735163,-0.04625312,-38.545,28.019,-51.158,1
-0.04249708,5.3863554,7.2622123,0.031074448,0.04602737,-0.042587925,-38.545,28.019,-51.158,1
-0.024540568,5.410896,7.3083005,0.029547285,0.062215295,-0.038922735,-38.545,28.019,-51.158,1
-0.012569559,5.383961,7.3627687,0.020995172,0.06496419,-0.039839033,-38.243,28.019,-51.158,1
-0.029927522,5.4162827,7.29214,0.005112676,0.073210865,-0.043504223,-38.243,28.019,-51.158,1
0.034117375,5.4264584,7.294534,0.021606037,0.0463328,-0.04625312,-38.243,28.019,-51.158,1
-0.0035913025,5.398925,7.335834,0.012443058,0.029228576,-0.05114004,-38.243,28.019,-51.158,1
-0.10354923,5.3462524,7.4387846,-0.0031340048,0.045416504,-0.03831187,-38.243,28.019,-50.834,1
-0.08559271,5.4043117,7.347805,0.009999597,0.062215295,-0.035562977,-38.243,28.019,-50.834,1
-0.08020575,5.329493,7.3106947,0.016719114,0.048470825,-0.032203216,-38.243,28.019,-50.834,1
-0.089782566,5.353435,7.3220673,0.018246278,0.04785996,-0.027010862,-38.243,28.019,-50.834,1
0.037110128,5.3624134,7.463924,0.012748491,0.055495776,-0.023956537,-38.243,28.019,-50.834,1
-0.007182605,5.3983264,7.277176,0.0231332,0.06160443,-0.04319879,-38.243,28.019,-50.834,1
-0.022146367,5.3683987,7.3723454,0.026187526,0.04175131,-0.041366197,-38.243,28.019,-50.834,1
0.033518825,5.406706,7.337031,0.04390262,0.030755736,-0.055110663,-38.243,28.019,-50.834,1
-0.02932897,5.410896,7.3268557,0.034128774,0.036558956,-0.04900201,-38.243,28.019,-50.834,1
-0.038905777,5.3779755,7.315483,0.020689739,0.03900242,-0.043504223,-38.243,28.019,-50.834,1
-0.015562311,5.3701944,7.267599,0.014275654,0.045111068,-0.03739557,-38.548,28.019,-50.834,1
-0.031124622,5.4474072,7.207744,0.018551711,0.05457948,-0.0526672,-38.548,28.019,-50.834,1
-0.06404489,5.393538,7.530363,0.015191952,0.026785113,-0.041671626,-38.548,28.019,-50.834,1
-0.053869538,5.3737855,7.132327,0.038710263,0.05916097,-0.031286918,-38.548,28.019,-50.834,1
-0.0712275,5.3408656,7.3909006,0.004807243,0.06465876,-0.03250865,-38.548,28.019,-50.834,1
-0.05207389,5.4282537,7.380127,0.01732998,0.05457948,-0.03281408,-38.548,28.019,-50.834,1
-0.08798691,5.395932,7.379528,0.020689739,0.038391553,-0.04991831,-38.548,28.019,-50.834,1
-0.05267244,5.3618145,7.281366,0.039931994,0.02281449,-0.051445473,-38.548,28.019,-50.834,1
-0.038905777,5.3713913,7.257424,0.01152676,0.03900242,-0.0404499,-38.548,28.019,-50.834,1
-0.12030864,5.401319,7.3938932,-0.0077154934,0.062215295,-0.041366197,-38.548,28.019,-50.834,1
-0.092775315,5.395334,7.375937,0.017635413,0.062215295,-0.03495211,-38.548,28.019,-51.136,1
0.004189853,5.354632,7.345411,0.023438632,0.062215295,-0.032203216,-38.548,28.019,-51.136,1
0.034715924,5.3713913,7.1939774,0.021606037,0.06313159,-0.034341246,-38.548,28.019,-51.136,1
-0.109534726,5.345055,7.301717,-0.02909578,0.115666,-0.033424947,-38.548,28.019,-51.136,1
-0.1328782,5.373187,7.4495587,0.004807243,0.035337225,-0.05480523,-38.548,28.019,-51.136,1
-0.08080431,5.3636103,7.2664022,0.0371831,0.03900242,-0.036173843,-38.548,28.019,-51.136,1
-0.079008654,5.3594203,7.2604165,0.038710263,0.051219724,-0.035562977,-38.548,28.019,-51.136,1
0.0011971008,5.3725886,7.325659,0.015497385,0.04877626,-0.033119515,-38.246,28.019,-51.136,1
-0.09876082,5.3965306,7.331644,0.01030503,0.07198914,-0.03373038,-38.246,28.019,-50.791,1
-0.10175357,5.333683,7.3346367,0.015191952,0.056717508,-0.050529175,-38.246,28.019,-50.791,1
-0.076015905,5.37199,7.342418,0.012443058,0.032588333,-0.03831187,-38.246,28.019,-50.791,1
-0.06823475,5.331289,7.343615,0.017940845,0.021287322,-0.04625312,-38.246,28.019,-51.097,1
-0.090381116,5.379771,7.3657618,0.020689739,0.039307848,-0.039839033,-38.246,28.019,-51.097,1
-0.093373865,5.3396683,7.382521,0.018246278,0.04022415,-0.039839033,-38.246,28.019,-51.097,1
-0.01436521,5.353435,7.417237,0.015497385,0.04755453,-0.037701003,-38.246,28.019,-50.793,1
-0.08140286,5.3444567,7.295731,0.012748491,0.065575056,-0.03831187,-38.246,28.019,-50.793,1
-0.12928689,5.361216,7.21373,0.017635413,0.07198914,-0.030370621,-38.246,28.019,-50.793,1
-0.05566519,5.3205147,7.3687544,0.028020121,0.03747525,-0.036784705,-38.246,28.321,-50.793,1
-0.055066638,5.367202,7.349601,0.03473964,0.031061165,-0.042587925,-38.246,28.321,-50.793,1
0.022146367,5.3486466,7.3298483,0.031379882,0.04175131,-0.045642253,-38.246,28.321,-50.793,1
-0.12330139,5.380968,7.27957,0.032296177,0.06343703,-0.056332394,-38.246,28.321,-50.793,1
-0.095768064,5.3163247,7.350199,0.017635413,0.038696982,-0.054194365,-38.246,28.321,-50.793,1
-0.12749124,5.357625,7.3448124,0.021911468,0.0304503,-0.04075533,-38.246,28.321,-50.793,1
-0.09636662,5.379771,7.249643,0.026187526,0.042667605,-0.0386173,-38.246,28.321,-50.793,1
-0.06703765,5.3582234,7.347805,0.02527123,0.04877626,-0.031286918,-38.246,28.321,-50.793,1
-0.06584055,5.3803697,7.340024,0.03840483,0.064353324,-0.034341246,-38.246,28.321,-50.793,1
-0.09876082,5.329493,7.280169,0.020078875,0.069851115,-0.041366197,-38.246,28.321,-50.793,1
-0.065242,5.3115363,7.3897038,0.011832193,0.05702294,-0.018153315,-38.246,28.321,-50.793,1
-0.093972415,5.331289,7.2364745,0.01152676,0.05793924,-0.03373038,-38.246,28.321,-50.793,1
-0.017357962,5.3606176,7.4465656,0.013664789,0.045721933,-0.033424947,-38.246,28.321,-50.793,1
-0.016759412,5.3516393,7.386112,0.021300605,0.043583907,-0.036479272,-38.246,28.321,-50.793,1
-0.025139118,5.3420625,7.3071036,0.012443058,0.051830586,-0.05236177,-38.246,28.321,-50.793,1
-0.09995792,5.351041,7.395689,0.01030503,0.068629384,-0.049307443,-38.246,28.321,-50.793,1
-0.074818805,5.33907,7.355586,0.0063344054,0.051830586,-0.045031387,-38.246,28.321,-50.793,1
-0.091578215,5.3486466,7.3507977,0.013970221,0.053663183,-0.042893358,-38.246,28.321,-50.793,1
-0.10055647,5.29358,7.301118,0.018551711,0.053052317,-0.04625312,-38.246,28.321,-50.793,1
-0.09636662,5.321712,7.3579803,0.0045018103,0.04877626,-0.04686398,-38.246,28.321,-50.793,1
-0.093972415,5.346851,7.417237,-0.006493766,0.04908169,-0.053888932,-38.246,28.321,-50.793,1
-0.05267244,5.3504424,7.285556,0.03473964,0.042362176,-0.051750906,-38.246,28.321,-50.793,1
-0.12569559,5.276222,7.4525514,0.01152676,0.058855537,-0.04319879,-38.246,28.321,-50.793,1
-0.12808979,5.315128,7.367557,0.013053924,0.08115212,-0.024872834,-38.246,28.321,-50.793,1
-0.1328782,5.227141,7.3286514,0.026492959,0.081762984,-0.044725955,-38.246,28.321,-50.793,1
-0.17956513,5.294777,7.349601,0.013664789,0.071378276,-0.045947686,-38.246,28.321,-50.793,1
-0.13467385,5.255273,7.521983,0.0041963775,0.051525153,-0.044725955,-38.246,28.321,-50.793,1
-0.17657238,5.305551,7.356185,0.028020121,0.053052317,-0.050834607,-38.246,28.321,-50.793,1
-0.15203181,5.2397103,7.317279,0.009999597,0.06465876,-0.05022374,-38.246,28.321,-50.793,1
-0.18914193,5.2941785,7.3603745,0.0020583495,0.06740765,-0.04411509,-38.246,28.321,-51.103,1
-0.24420857,5.2726307,7.4088573,0.01152676,0.07076741,-0.03831187,-38.246,28.321,-51.103,1
-0.19632454,5.221155,7.4058642,0.010915896,0.044500202,-0.036479272,-38.246,28.321,-51.103,1
-0.15203181,5.231331,7.359776,0.029852718,0.044194773,-0.037701003,-38.246,28.321,-51.103,1
-0.12150574,5.2301335,7.365163,0.03351791,0.051525153,-0.042587925,-38.246,28.321,-51.103,1
-0.17657238,5.2594624,7.466318,-0.000690544,0.073210865,-0.031286918,-38.246,28.321,-51.103,1
-0.22984336,5.277419,7.3627687,0.01946801,0.07779236,-0.045031387,-38.246,28.321,-51.103,1
-0.18674773,5.237316,7.439383,0.03596137,0.020981893,-0.052972637,-38.246,28.321,-51.103,1
-0.19752164,5.2624555,7.2939353,0.04420805,0.044500202,-0.04991831,-38.246,28.321,-51.103,1
-0.1340753,5.221155,7.563882,0.018551711,0.035031796,-0.044725955,-38.246,28.321,-51.103,1
-0.2765303,5.29358,7.380127,0.014886519,0.07412717,-0.050529175,-38.246,28.321,-51.103,1
-0.25498247,5.2606597,7.455544,0.015191952,0.059466403,-0.042587925,-38.246,28.321,-51.103,1
-0.23044191,5.2678423,7.3909006,0.019162577,0.039307848,-0.04442052,-38.246,28.321,-51.103,1
-0.24899697,5.2636523,7.307702,0.032296177,0.045111068,-0.044725955,-38.246,28.321,-51.103,1
-0.24600422,5.295376,7.365163,0.037488535,0.035031796,-0.040144466,-37.942,28.321,-51.103,1
-0.20410569,5.3019595,7.389105,0.024354931,0.049997993,-0.041671626,-37.942,28.321,-50.782,1
-0.18614918,5.297171,7.2885485,0.028630987,0.039307848,-0.043809656,-37.942,28.321,-50.782,1
-0.19572599,5.233126,7.445369,0.0020583495,0.04602737,-0.036784705,-37.942,28.321,-50.782,1
-0.24121583,5.298967,7.29214,0.008777866,0.06649135,-0.032203216,-37.942,28.321,-50.782,1
-0.27593175,5.2002063,7.4232225,0.0026692152,0.07076741,-0.030981487,-37.942,28.321,-51.091,1
-0.20470424,5.3061495,7.4268136,0.021606037,0.03564266,-0.035257544,-37.942,28.321,-51.091,1
-0.1328782,5.2319293,7.477092,0.016719114,0.029839441,-0.036173843,-37.942,28.321,-51.091,1
-0.17417817,5.269039,7.3442135,0.018551711,0.059771836,-0.041060764,-37.942,28.321,-51.091,1
-0.25677812,5.21517,7.410054,0.016719114,0.072905436,-0.05022374,-37.942,28.321,-51.091,1
-0.2633622,5.229535,7.414244,0.012443058,0.045416504,-0.035562977,-37.942,28.321,-51.091,1
-0.2172738,5.257068,7.515399,0.0231332,0.02861771,-0.04075533,-37.942,28.321,-51.091,1
-0.2172738,5.2139726,7.355586,0.02771469,0.05335775,-0.036784705,-37.942,28.321,-51.091,1
-0.17836803,5.277419,7.378331,0.021300605,0.05213602,-0.041060764,-37.942,28.321,-51.091,1
-0.2112883,5.3199162,7.357382,0.0045018103,0.047249094,-0.047474846,-37.942,28.321,-51.091,1
-0.2693477,5.197213,7.3723454,0.010610463,0.008764587,-0.036173843,-37.942,28.321,-50.781,1
-0.17896658,5.221754,7.4806833,0.009388732,0.058855537,-0.04075533,-37.942,28.321,-50.781,1
-0.2669535,5.205593,7.4603324,0.006945271,0.06832395,-0.029454324,-37.942,28.321,-50.781,1
-0.2801216,5.171476,7.2909427,0.01030503,0.09367485,-0.041366197,-37.942,28.321,-50.781,1
-0.15502456,5.2079873,7.5566993,-0.0019122753,0.03900242,-0.034341246,-37.942,28.321,-50.781,1
-0.2657564,5.1702785,7.3777328,0.012443058,0.040835015,-0.044725955,-37.942,28.622,-50.781,1
-0.2172738,5.2145715,7.453748,-0.008937225,0.0304503,-0.033424947,-37.942,28.622,-50.781,1
-0.23343466,5.239112,7.462128,0.023744065,0.0313666,-0.03739557,-37.942,28.622,-50.781,1
-0.19572599,5.170877,7.5088153,0.02557666,0.054884914,-0.04991831,-37.942,28.622,-50.781,1
-0.14724341,5.2474914,7.2352777,0.0371831,0.04144588,-0.030065188,-37.942,28.622,-51.133,1
-0.24540567,5.1080294,7.680599,-0.009853523,0.056717508,-0.042587925,-37.942,28.622,-51.133,1
-0.19632454,5.234922,7.2831616,0.01732998,0.036864385,-0.05602696,-37.942,28.622,-51.133,1
-0.17298107,5.1900306,7.5650787,0.0045018103,0.009070016,-0.055416096,-37.942,28.622,-51.133,1
-0.15562311,5.2115784,7.40766,0.0371831,-0.015059158,-0.030370621,-37.942,28.622,-51.133,1
-0.25318682,5.156512,7.5106106,0.0060289726,0.051830586,-0.042282492,-37.942,28.622,-51.133,1
-0.11192893,5.306748,7.303512,0.033212475,0.073210865,-0.03281408,-37.942,28.622,-51.133,1
-0.26515785,5.1475334,7.493851,0.027103825,0.09062053,-0.033119515,-37.942,28.622,-51.133,1
-0.107739076,5.2355204,7.207744,0.050622135,0.048165396,-0.043809656,-37.942,28.622,-50.834,1
-0.18315643,5.1822495,7.6428905,-0.0019122753,0.050914288,-0.047169417,-37.942,28.622,-50.834,1
-0.08798691,5.193622,7.2472486,0.031685315,0.030755736,-0.038922735,-37.942,28.622,-50.834,1
-0.32441434,5.1720743,7.4106526,-0.019321933,0.0744326,-0.06305191,-37.942,28.622,-50.834,1
-0.16998832,5.2049947,7.3549876,-0.03153924,0.03564266,-0.051750906,-37.942,28.622,-50.834,1
-0.05865794,5.276222,7.2382703,-0.07002375,0.031977467,-0.06610624,-37.942,28.622,-50.834,1
0.0077811554,5.0302176,7.5812397,-0.16318071,-0.037050307,-0.07618551,-37.942,28.95,-50.834,1
-0.39923313,4.613028,7.892486,-0.16531873,0.07229457,-0.09023541,-37.942,29.275,-50.834,1
-0.18315643,4.693234,7.6464815,0.058257952,-0.008645073,-0.0404499,-37.942,29.275,-50.834,1
0.12090719,5.2846017,7.3059063,0.2583163,0.018843867,-0.0404499,-37.942,29.602,-50.834,1
-0.24600422,4.9284644,7.390302,0.08147083,0.17217104,-0.045947686,-38.256,29.602,-50.834,1
-0.19812019,5.0134583,7.715315,0.11506842,0.04908169,-0.056637827,-38.584,29.602,-50.834,1
-0.11971009,5.089474,7.40766,0.07566761,0.033810064,-0.026705429,-38.885,29.602,-50.834,1
-0.13706805,5.0900726,7.6147585,0.038710263,0.046638235,-0.022429373,-38.885,29.281,-50.834,1
0.02813187,5.167286,7.381324,0.040237427,-0.035217717,-0.013571827,-38.885,29.281,-50.834,1
-0.090979666,5.195418,7.460931,0.04542978,0.020371027,-0.045031387,-39.196,29.281,-50.834,1
0.14903906,5.345055,7.66384,0.066810064,-0.007728778,-0.037090138,-39.196,29.281,-50.834,1
-0.13706805,5.1259856,7.4483614,0.039931994,0.04144588,-0.0404499,-39.514,29.281,-50.834,1
0.074818805,5.2265425,7.1622543,0.0075561367,0.022509053,-0.020902209,-39.514,28.982,-50.834,1
-0.0664391,5.139154,7.505822,0.0029746462,0.019454725,-0.038006436,-39.514,28.982,-50.834,1
0.08020575,5.3737855,7.351995,0.03687767,0.051525153,-0.034341246,-39.514,28.982,-50.834,1
0.1412579,5.2259436,7.433398,0.06833723,0.024952516,-0.04625312,-39.514,28.982,-50.834,1
0.21906945,5.34326,7.3220673,0.04848411,0.0008233413,-0.040144466,-39.514,28.982,-50.834,1
0.15143326,5.281609,7.371747,0.06864266,0.031977467,-0.050529175,-39.514,28.982,-50.834,1
0.15502456,5.3995233,7.3968863,0.07994367,0.035337225,-0.064884506,-39.819,28.681,-50.834,1
0.14664486,5.400122,7.395689,0.050316703,0.0023505017,-0.038006436,-39.819,28.681,-50.834,1
0.22804771,5.3498435,7.3723454,0.014581086,0.018233001,-0.03464668,-39.819,28.681,-50.834,1
0.15861586,5.3875523,7.316082,0.009999597,0.04144588,-0.042893358,-39.819,28.681,-50.834,1
0.3812766,5.309741,7.3083005,0.07597305,0.0066265613,-0.023651104,-40.15,28.681,-50.834,1
0.23104046,5.358822,7.311892,0.039015695,0.051219724,-0.05816499,-40.15,28.681,-50.834,1
0.19572599,5.361216,7.129334,0.055203624,0.04755453,-0.041060764,-40.15,28.37,-50.834,1
0.23702596,5.341464,7.5285673,-0.06055534,0.068629384,-0.025178267,-40.15,28.37,-50.834,1
0.32441434,5.42167,7.341221,0.014581086,0.014873236,-0.042587925,-40.15,28.37,-50.834,1
0.2765303,5.3043537,7.460931,-0.0025231391,0.05916097,-0.03250865,-40.15,28.37,-50.834,1
0.20231004,5.3324857,7.474099,-0.020849098,0.15170705,-0.0120446645,-40.15,28.37,-50.834,1
0.20829555,5.266645,7.2065473,-0.06513683,0.15415052,-0.047474846,-40.15,28.37,-50.834,1
-0.12749124,5.1104236,7.680599,-0.1173658,0.27204752,-0.055110663,-39.845,28.37,-50.453,1
-0.12449849,5.1846437,7.450157,-0.0110752545,0.18988612,-0.026399996,-39.845,28.704,-50.453,1
-0.22565351,5.0374002,7.6506715,-0.03276097,0.19324589,-0.053583503,-39.845,29.043,-50.105,1
-1.1378443,4.8937483,7.381324,-0.000690544,0.22867608,-0.059997585,-39.53,29.043,-50.105,1
-0.40282443,4.9637785,7.844003,-0.09537466,0.04877626,-0.04991831,-39.201,29.043,-50.105,1
-0.3645172,5.060744,7.653664,-0.0358153,0.0060156956,-0.025178267,-39.201,29.043,-50.105,1
-0.41958386,4.950012,7.4992385,0.06558833,0.0331992,-0.04991831,-38.887,29.359,-50.105,1
-0.43873745,5.072715,7.4046674,0.04970584,0.051525153,-0.043809656,-38.887,29.359,-50.105,1
-0.2100912,5.0116625,7.621941,0.06314488,-0.0031472892,-0.030065188,-38.887,29.359,-50.105,1
-0.24001873,5.118803,7.326257,0.054898195,0.06679678,-0.0254837,-38.887,29.359,-50.105,1
-0.28431144,5.0679264,7.5225816,0.028325554,0.04785996,-0.041366197,-38.887,29.359,-50.105,1
-0.30645782,5.0781016,7.435792,0.019773442,0.053052317,-0.030676054,-38.887,29.359,-50.105,1
-0.22984336,5.1104236,7.608773,0.021300605,0.027395979,-0.031897783,-38.887,29.359,-50.105,1
-0.30945057,5.085284,7.443573,0.024660364,0.05335775,-0.036479272,-38.887,29.359,-50.41,1
-0.23822308,5.121796,7.513005,0.017024547,0.043583907,-0.039839033,-38.572,29.054,-50.41,1
-0.22744916,5.134964,7.4112515,0.027103825,0.044194773,-0.041366197,-38.572,29.054,-50.41,1
-0.2112883,5.120599,7.5525093,0.028630987,0.048165396,-0.043504223,-38.572,29.054,-50.41,1
-0.22266077,5.0930657,7.5710645,0.012748491,0.053663183,-0.045642253,-38.572,29.054,-50.41,1
-0.31004912,5.070919,7.427412,0.01946801,0.06618592,-0.043504223,-38.572,29.054,-50.41,1
-0.350152,5.0787005,7.4591355,0.0078615695,0.05427405,-0.042282492,-38.572,29.054,-50.41,1
-0.26156655,5.122993,7.5920134,0.010610463,0.02861771,-0.045031387,-38.572,29.054,-50.41,1
-0.30645782,5.121197,7.478289,0.027103825,0.036864385,-0.041060764,-38.572,29.054,-50.41,1
-0.24121583,5.097255,7.462128,0.018246278,0.06649135,-0.031897783,-38.572,29.054,-50.41,1
-0.25977087,5.1301756,7.431602,0.009083299,0.06252073,-0.037701003,-38.264,29.054,-50.41,1
-0.29269117,5.0703206,7.425018,0.010610463,0.057633806,-0.048696578,-38.264,29.054,-50.41,1
-0.30047232,5.060744,7.443573,0.0060289726,0.061909862,-0.06183018,-38.264,29.054,-50.41,1
-0.3405752,5.0403934,7.5171947,0.015497385,0.040835015,-0.05847042,-38.264,29.054,-50.41,1
-0.33758244,5.009867,7.3633676,0.0038909446,0.051830586,-0.058775857,-38.264,29.054,-50.41,1
-0.21667525,5.1200004,7.442376,0.01152676,0.039613284,-0.055416096,-38.264,29.054,-50.41,1
-0.11492168,5.1397524,7.406463,-0.038258754,0.03014487,-0.11314286,-38.264,29.054,-50.41,1
-0.29209262,4.8698063,7.6692266,-0.042534813,0.09367485,-0.06702253,-38.264,29.054,-50.41,1
-0.39264908,4.9200845,7.5866265,-0.11644951,0.17247647,-0.10367445,-38.264,29.054,-50.724,1
-0.6374562,4.694431,7.8469963,-0.053530388,0.09520202,-0.122916706,-38.264,29.362,-51.054,1
-0.4854244,5.0266266,7.77517,0.047262378,0.14712557,-0.12841448,-37.945,29.362,-51.054,1
-1.1097125,4.5232453,7.3926964,0.009388732,0.094896585,-0.06396821,-37.596,29.362,-51.054,1
-0.7386112,4.7261543,7.825448,-0.0110752545,0.061909862,0.067367814,-37.596,29.672,-51.054,1
-0.4357447,4.823119,7.7865424,0.0014474839,-0.10791068,0.0029215366,-37.295,29.672,-51.054,1
-0.5638345,4.7141833,7.603386,0.009694165,-0.03124708,-0.045031387,-37.295,29.672,-51.054,1
-0.7080852,4.712986,7.638102,-0.002828572,-0.03094165,-0.007157743,-37.295,29.672,-51.054,1
-0.3878607,4.729147,7.5471225,0.024660364,0.0038776621,0.0075030252,-37.606,29.672,-51.054,1
-0.49679685,4.6375685,7.909844,0.016108248,0.010291748,-0.008379472,-37.606,29.672,-50.746,1
-0.2088941,4.8775873,7.630321,0.092771836,-0.028498188,0.016971435,-37.606,29.988,-50.746,1
-0.34476504,4.7800236,7.6225395,0.063755736,0.08603904,-0.029454324,-37.908,29.988,-50.746,1
-0.2765303,4.8787847,7.5764513,0.11170866,0.03747525,-0.035562977,-38.252,29.988,-50.746,1
-0.3226187,4.8973393,7.519589,0.047567807,0.036864385,-0.04075533,-38.552,29.988,-50.746,1
-0.3585317,4.8704047,7.521983,0.050316703,0.024647087,-0.045947686,-38.552,29.988,-50.746,1
-0.362123,4.9015293,7.517793,0.042070024,0.039613284,-0.037701003,-38.88,29.988,-50.746,1
-0.3309984,4.894945,7.6967597,0.02557666,0.045721933,-0.035257544,-38.88,29.988,-50.746,1
-0.33279404,4.914099,7.587824,0.0652829,0.043889336,-0.045031387,-38.88,29.988,-50.746,1
-0.2124854,4.968567,7.5800424,0.029547285,0.046943665,-0.04319879,-38.88,29.684,-50.746,1
-0.22565351,4.9188876,7.6440873,0.017940845,0.032588333,-0.05602696,-38.88,29.684,-50.746,1
-0.41299978,4.8428717,7.7560163,-0.027874049,0.09245312,-0.037701003,-38.88,29.684,-50.746,1
-0.2861071,4.985925,7.5680714,-0.029706642,0.087566204,-0.021513075,-38.88,29.684,-50.746,1
-0.34835634,4.831499,7.632715,0.020078875,0.0047939643,-0.041366197,-38.88,29.684,-50.746,1
-0.4357447,4.8680105,7.653664,-0.000690544,0.073210865,-0.035562977,-38.88,29.684,-50.746,1
-0.29209262,4.871602,7.6680293,0.034128774,0.032282896,-0.03464668,-38.88,29.684,-50.746,1
-0.32441434,4.9404354,7.607576,0.027103825,0.07260001,-0.04655855,-38.88,29.684,-50.746,1
-0.35553896,4.915296,7.560889,0.046651512,0.048470825,-0.048085712,-38.88,29.684,-50.746,1
-0.39145198,4.912902,7.5291657,0.03596137,0.03747525,-0.038922735,-38.88,29.684,-50.746,1
-0.3645172,4.9218802,7.518392,0.0026692152,0.03716982,-0.03495211,-38.88,29.684,-50.746,1
-0.37349546,4.8602295,7.8068933,-0.017794773,0.05213602,-0.02792716,-38.88,29.684,-50.746,1
-0.32621,4.8859673,7.551911,-0.0013014097,0.020676456,-0.029454324,-38.88,29.684,-50.746,1
-0.3878607,4.8458643,7.4854717,0.018857144,0.054884914,-0.040144466,-38.88,29.684,-50.746,1
-0.30286652,4.8757915,7.7069354,0.020995172,0.024952516,-0.03586841,-38.88,29.684,-51.069,1
-0.33518824,4.807557,7.590218,0.040237427,0.046943665,-0.04319879,-38.88,29.684,-50.727,1
-0.29987377,4.8422728,7.5584946,0.029241852,0.053663183,-0.03159235,-38.566,29.684,-50.727,1
-0.32321724,4.9039235,7.6668324,0.029547285,0.084817305,-0.03281408,-38.566,29.684,-50.727,1
-0.32142156,4.84766,7.6644382,0.01030503,0.0735163,-0.03159235,-38.566,29.684,-50.727,1
-0.30466217,4.857237,7.4776907,0.036572237,0.046943665,-0.0386173,-38.566,29.684,-50.421,1
-0.29029694,4.8416743,7.7368627,-0.0019122753,0.032893762,-0.034035813,-38.265,29.684,-50.421,1
-0.32142156,4.887164,7.7207017,0.023438632,0.04297304,-0.034341246,-38.265,29.684,-50.421,1
-0.31244332,4.9021277,7.6590514,0.013970221,0.055190347,-0.03250865,-38.265,29.684,-50.421,1
-0.33399114,4.8841715,7.6584525,0.014275654,0.051219724,-0.026705429,-38.265,29.684,-50.421,1
-0.26994625,4.8524485,7.5812397,0.03260161,0.061909862,-0.040144466,-38.265,29.684,-50.727,1
-0.22505496,4.917092,7.645883,0.009083299,0.059466403,-0.030065188,-38.265,29.371,-50.727,1
-0.3321955,4.8823757,7.6440873,0.013970221,0.0603827,-0.03159235,-38.265,29.371,-50.419,1
-0.30885202,4.8745947,7.6015906,0.030769015,0.051830586,-0.04075533,-38.265,29.371,-50.419,1
-0.29388827,4.9320555,7.5602903,0.047262378,0.05580121,-0.036784705,-38.265,29.371,-50.758,1
-0.24660277,4.8877625,7.6614456,0.030158151,0.04480564,-0.048085712,-38.265,29.371,-50.758,1
-0.30645782,4.9518075,7.5692687,0.04054286,0.0744326,-0.04533682,-38.265,29.371,-50.758,1
-0.3250129,4.8901567,7.5165963,0.03840483,0.053663183,-0.05205634,-38.265,29.371,-50.447,1
-0.30585927,4.9583917,7.53156,0.02771469,0.040835015,-0.051445473,-38.265,29.371,-50.447,1
-0.3172317,4.9655743,7.583634,0.02557666,0.043889336,-0.042893358,-38.265,29.371,-50.447,1
-0.3842694,4.8883615,7.555502,0.022827767,0.04602737,-0.04442052,-38.265,29.371,-50.447,1
-0.31543607,4.964976,7.5333557,0.021606037,0.03900242,-0.047474846,-38.265,29.371,-50.447,1
-0.32920274,4.9787426,7.5351515,0.021911468,0.06252073,-0.05022374,-38.265,29.371,-50.447,1
-0.3561375,4.943428,7.6949644,0.007250704,0.045111068,-0.042282492,-38.265,29.371,-50.447,1
-0.42317516,4.9188876,7.482479,0.036572237,0.059466403,-0.030676054,-37.954,29.371,-50.108,1
-0.38606504,4.871602,7.6291237,0.016108248,0.057633806,-0.041671626,-37.954,29.371,-50.108,1
-0.39624038,4.9428296,7.6452847,0.022522334,0.053663183,-0.042587925,-37.954,29.371,-50.108,1
-0.35793316,4.9625816,7.678205,-0.0052720346,0.03747525,-0.050529175,-37.954,29.371,-50.108,1
-0.34356794,4.961983,7.5806413,0.022216901,0.04480564,-0.043504223,-37.954,29.371,-50.41,1
-0.3274071,4.950012,7.5363483,0.032296177,0.04297304,-0.036173843,-37.954,29.371,-50.41,1
-0.32561144,5.073912,7.6147585,0.02527123,0.06496419,-0.01968048,-37.954,29.371,-50.41,1
-0.3489549,4.9601874,7.5722613,0.026798392,0.044500202,-0.02578913,-37.954,29.371,-50.41,1
-0.39145198,4.957793,7.478289,0.032296177,0.05457948,-0.03831187,-37.954,29.371,-50.41,1
-0.28550854,4.970961,7.5848308,0.012748491,0.039918713,-0.041366197,-37.954,29.371,-50.41,1
-0.38307226,5.0002904,7.6333137,-0.000690544,0.05427405,-0.042587925,-37.954,29.371,-50.41,1
-0.3776853,5.009867,7.563882,0.019162577,0.04144588,-0.027316295,-37.954,29.371,-50.41,1
-0.34476504,4.936844,7.6704235,0.008472433,0.025563382,-0.03373038,-37.954,29.371,-50.41,1
-0.38845924,4.988918,7.5800424,0.0041963775,0.047249094,-0.03373038,-37.954,29.371,-50.41,1
-0.28191724,4.944625,7.719505,0.009694165,0.03014487,-0.035257544,-37.954,29.371,-50.41,1
-0.362123,4.9919105,7.5812397,0.019773442,0.04205674,-0.042893358,-37.954,29.371,-50.41,1
-0.3357868,4.9536033,7.5525093,0.013970221,0.042362176,-0.036784705,-37.954,29.371,-50.41,1
-0.33039984,4.988918,7.555502,0.016108248,0.045111068,-0.030370621,-37.954,29.371,-50.41,1
-0.31483752,4.988918,7.5213847,0.018551711,0.032282896,-0.03586841,-37.954,29.371,-50.41,1
-0.30526072,4.9404354,7.615956,0.028325554,0.04297304,-0.035562977,-37.954,29.371,-50.41,1
-0.28491,4.9943047,7.4004774,0.028020121,0.047249094,-0.03373038,-37.954,29.371,-50.41,1
-0.3681085,4.9655743,7.5088153,0.006945271,0.05580121,-0.042282492,-37.954,29.371,-50.41,1
-0.18914193,5.0308166,7.577648,0.028020121,-0.0034527183,-0.036784705,-37.954,29.371,-50.41,1
-0.24959552,4.9224787,7.629722,0.0231332,0.052746885,-0.048696578,-37.954,29.371,-50.41,1
-0.2861071,4.9763484,7.518392,0.021300605,0.050303422,-0.045947686,-37.954,29.371,-50.41,1
-0.2896984,4.9338512,7.5351515,0.016413681,0.067102216,-0.051750906,-37.954,29.371,-50.41,1
-0.3645172,4.939238,7.555502,0.027103825,0.064353324,-0.05694326,-37.954,29.371,-50.41,1
-0.3238158,4.957793,7.5285673,0.024049498,0.049997993,-0.045031387,-37.954,29.371,-50.41,1
-0.2777274,4.984728,7.642292,0.016719114,0.049387127,-0.038006436,-38.265,29.371,-50.41,1
-0.37110126,5.0038815,7.487866,0.020689739,0.057633806,-0.027010862,-38.265,29.371,-50.41,1
-0.3842694,4.9176903,7.5920134,0.025882093,0.06313159,-0.028232593,-38.265,29.371,-50.41,1
-0.32800564,4.999093,7.5411367,0.027103825,0.071378276,-0.022734806,-38.265,29.371,-50.103,1
-0.30406362,4.951209,7.533954,0.022522334,0.088787936,-0.028843459,-37.965,29.371,-50.103,1
-0.3549404,4.948815,7.526173,0.006639838,0.047249094,-0.038006436,-37.965,29.371,-50.103,1
-0.42197806,4.96318,7.423821,0.031685315,0.051219724,-0.018153315,-37.965,29.371,-50.103,1
-0.3250129,4.8482585,7.571663,0.018551711,0.003572233,-0.0102120675,-37.965,29.371,-50.103,1
-0.31124622,4.969764,7.579444,0.005112676,0.046943665,-0.0254837,-37.965,29.371,-50.103,1
-0.2148796,5.023035,7.574057,0.029852718,0.045416504,-0.033424947,-37.965,29.371,-50.103,1
-0.25079262,4.9536033,7.5052238,0.036572237,0.04175131,-0.035562977,-37.965,29.371,-50.103,1
-0.16220717,4.96737,7.465719,0.039015695,0.014567807,-0.0395336,-37.965,29.371,-50.103,1
-0.2124854,4.95899,7.521983,0.010915896,0.024952516,-0.034341246,-37.965,29.371,-50.103,1
-0.25139117,4.9542017,7.5962033,0.03351791,0.051219724,-0.044725955,-37.965,29.371,-50.103,1
-0.23582886,4.957195,7.569867,0.025882093,0.07046197,-0.049307443,-37.965,29.371,-50.103,1
-0.20290859,4.970961,7.548918,0.029241852,0.055495776,-0.04625312,-37.965,29.371,-50.103,1
-0.23762453,4.923676,7.521983,0.014581086,0.06924024,-0.059081286,-38.281,29.371,-50.103,1
-0.25797522,4.97156,7.5351515,0.009999597,0.084511876,-0.036173843,-38.281,29.371,-50.103,1
-0.3172317,4.9422307,7.5285673,0.014581086,0.07840322,-0.031897783,-38.281,29.371,-50.103,1
-0.32680854,4.88477,7.526173,0.018246278,0.057633806,-0.045031387,-38.281,29.371,-50.103,1
-0.32321724,4.945224,7.611766,0.016413681,0.040835015,-0.04411509,-38.281,29.371,-50.103,1
-0.25558102,4.9583917,7.6853876,0.012443058,0.037780687,-0.041060764,-38.281,29.371,-50.103,1
-0.28191724,4.933253,7.6387005,0.026492959,0.061909862,-0.0395336,-38.281,29.371,-50.408,1
-0.31124622,4.9422307,7.323863,0.04298632,0.05824467,-0.054194365,-38.281,29.371,-50.408,1
-0.29927522,4.984728,7.5985975,0.014886519,0.0304503,-0.04075533,-38.281,29.371,-50.408,1
-0.3274071,4.9428296,7.574057,0.032907043,0.041140445,-0.041060764,-38.281,29.371,-50.408,1
-0.30645782,4.943428,7.421427,0.029547285,0.053052317,-0.042282492,-38.281,29.371,-50.408,1
-0.24181437,4.953005,7.639898,0.009999597,0.051830586,-0.041671626,-38.281,29.371,-50.408,1
-0.2753332,4.961983,7.495647,0.031685315,0.04602737,-0.057859555,-38.281,29.371,-50.408,1
-0.24540567,4.9416323,7.6488757,0.024965797,0.035031796,-0.0395336,-38.281,29.371,-50.408,1
-0.3357868,4.945224,7.5680714,0.013970221,0.07229457,-0.038006436,-38.281,29.371,-50.408,1
-0.29807812,4.896741,7.565677,0.018551711,0.048165396,-0.039839033,-38.281,29.371,-50.408,1
-0.29807812,4.960786,7.5052238,0.029852718,0.03167203,-0.048085712,-38.281,29.371,-50.408,1
-0.29927522,4.957195,7.6123643,0.030158151,0.046638235,-0.058775857,-38.281,29.371,-50.408,1
-0.28909984,4.96318,7.4992385,0.037793964,0.030755736,-0.052972637,-38.281,29.371,-50.408,1
-0.2861071,4.9823337,7.565677,0.024965797,0.03472636,-0.04319879,-38.281,29.371,-50.408,1
-0.3226187,4.9841294,7.6321163,0.018551711,0.044194773,-0.044725955,-38.281,29.371,-50.408,1
-0.30585927,4.968567,7.480085,0.036572237,0.05580121,-0.037701003,-38.281,29.371,-50.108,1
-0.32920274,4.957195,7.5447283,0.0035855118,0.053052317,-0.035257544,-38.281,29.371,-50.108,1
-0.2813187,4.964976,7.595605,0.01152676,0.057328373,-0.04411509,-38.281,29.371,-50.108,1
-0.3561375,4.9362454,7.5680714,0.0038909446,0.05060886,-0.05022374,-38.281,29.371,-50.108,1
-0.3429694,4.9853263,7.545925,0.01152676,0.026785113,-0.048391145,-38.281,29.371,-50.108,1
-0.27952304,4.9344497,7.5584946,0.024965797,0.02006559,-0.041671626,-38.281,29.371,-50.108,1
-0.25737667,4.92607,7.551911,0.024049498,0.061909862,-0.038922735,-38.281,29.371,-50.108,1
-0.30226797,4.980538,7.563882,0.016719114,0.062215295,-0.036173843,-38.281,29.371,-50.108,1
-0.3345897,4.9536033,7.5644803,0.0371831,0.062215295,-0.044725955,-38.281,29.371,-50.108,1
-0.3357868,4.9404354,7.428011,0.036572237,0.048165396,-0.04625312,-38.281,29.371,-50.108,1
-0.23044191,4.9637785,7.6345105,-0.0013014097,0.028006844,-0.05022374,-38.281,29.371,-50.108,1
-0.36391866,4.8979383,7.643489,-0.02481972,0.071683705,-0.05847042,-38.281,29.371,-50.108,1
-0.39025488,4.9123034,7.7907324,-0.033066403,0.09214769,-0.03586841,-38.281,29.371,-50.108,1
-0.34356794,4.9039235,7.754221,0.024965797,0.07565433,-0.03495211,-38.281,29.371,-50.108,1
-0.272939,4.908712,7.6069775,0.028325554,0.050303422,-0.044725955,-38.281,29.371,-50.108,1
-0.34476504,4.923077,7.5974007,0.024965797,0.064353324,-0.049307443,-38.281,29.371,-50.108,1
-0.39085343,4.9613843,7.5974007,0.022216901,0.03442093,-0.05205634,-38.281,29.371,-50.108,1
-0.40462008,4.9015293,7.5345526,0.029547285,0.054884914,-0.052972637,-38.281,29.371,-50.108,1
-0.42317516,4.9667716,7.65127,0.0078615695,0.059466403,-0.043504223,-38.281,29.371,-50.108,1
-0.34835634,5.000889,7.5136037,0.037488535,0.04908169,-0.030065188,-38.281,29.371,-50.108,1
-0.43035775,4.923077,7.541735,0.035045072,0.060688134,-0.03495211,-37.969,29.371,-50.108,1
-0.45010993,5.003283,7.4884644,0.03382334,0.04022415,-0.048696578,-37.969,29.371,-50.108,1
-0.40462008,4.9548006,7.49445,0.040237427,0.02006559,-0.041366197,-37.969,29.371,-50.108,1
-0.45968673,4.9919105,7.422025,0.04970584,0.021287322,-0.035257544,-37.969,29.371,-50.108,1
-0.38726214,5.006874,7.526173,0.029241852,0.052746885,-0.021513075,-37.969,29.371,-50.108,1
-0.29448682,4.9943047,7.5405383,0.024660364,0.044500202,-0.029148892,-37.969,29.371,-50.108,1
-0.30166942,5.0493712,7.3071036,0.034434207,0.051830586,-0.0404499,-37.969,29.371,-50.108,1
-0.33997664,4.9308586,7.7865424,-0.025430586,0.046638235,-0.014793558,-37.969,29.371,-50.108,1
-0.39863458,4.9877205,7.375937,0.029852718,0.07809779,-0.030981487,-37.969,29.371,-50.108,1
-0.35434186,4.9039235,7.6165543,0.01732998,0.04327847,-0.045642253,-37.969,29.371,-50.108,1
-0.36631286,4.973954,7.475296,0.023744065,0.023425356,-0.030065188,-37.969,29.371,-50.108,1
-0.801459,4.7506948,7.8206596,0.013970221,0.025563382,-0.05236177,-37.969,29.371,-50.108,1
-0.2813187,5.0439844,7.3352356,0.027409257,0.043889336,-0.03373038,-37.969,29.371,-50.108,1
-0.46866497,4.7961845,7.9026613,-0.035509862,0.07931952,-0.044725955,-37.969,29.371,-50.108,1
-0.31244332,5.027225,7.393295,0.037488535,0.032282896,-0.03586841,-37.969,29.371,-50.108,1
-0.41060558,4.7746367,7.6889787,0.008472433,0.04755453,-0.045031387,-37.969,29.371,-50.108,1
-0.30107087,5.009867,7.460931,0.028630987,0.050303422,-0.042587925,-37.969,29.371,-50.108,1
-0.3645172,4.7788267,7.839215,-0.012907848,0.0463328,-0.05205634,-37.969,29.371,-50.108,1
-0.39803603,4.9482164,7.4345946,0.018551711,0.03747525,-0.04686398,-37.969,29.371,-50.108,1
-0.43394905,4.7830167,7.890092,-0.0037448704,0.043889336,-0.0404499,-37.969,29.371,-50.108,1
-0.21787235,5.00867,7.429806,0.051538434,0.0066265613,-0.015098991,-37.969,29.371,-50.108,1
-0.29927522,4.824915,7.8092875,0.005112676,0.06252073,-0.04411509,-37.969,29.371,-50.108,1
-0.219668,5.035605,7.44896,0.033212475,0.05457948,-0.03495211,-37.969,29.371,-50.108,1
-0.39264908,4.784812,7.7386584,0.007250704,0.06282616,-0.05480523,-37.969,29.371,-50.444,1
-0.3513491,5.009867,7.3962874,0.04512435,0.056717508,-0.051750906,-37.969,29.371,-50.444,1
-0.4225766,4.83928,7.7350674,-0.006188333,0.054884914,-0.036479272,-37.969,29.371,-50.444,1
-0.32321724,5.0397944,7.2430587,0.053676464,0.060993567,-0.041366197,-37.969,29.371,-50.444,1
-0.42437226,4.848857,7.7344685,0.014581086,0.058855537,-0.027316295,-37.969,29.371,-50.444,1
-0.24181437,5.083489,7.2622123,0.058563385,0.06007727,-0.036479272,-37.969,29.371,-50.128,1
-0.32561144,4.847061,7.663241,0.018551711,0.049997993,-0.042587925,-37.969,29.371,-50.128,1
-0.30825347,5.0302176,7.27957,0.039015695,0.039613284,-0.036173843,-37.969,29.371,-50.128,1
-0.46088383,4.8279076,7.7452426,0.0023637824,0.07931952,-0.04625312,-37.969,29.371,-50.128,1
-0.25258827,4.9972973,7.3711486,0.05092757,0.03900242,-0.034341246,-37.969,29.371,-50.128,1
-0.41838676,4.8416743,7.7344685,-0.0055774674,0.0463328,-0.05205634,-37.969,29.371,-50.128,1
-0.2693477,4.983531,7.5944076,0.006639838,0.020981893,-0.042893358,-37.969,29.371,-50.128,1
-0.3728969,4.8536453,7.7967176,0.0078615695,0.0603827,-0.049307443,-37.969,29.371,-50.128,1
-0.3250129,4.9482164,7.4112515,0.027103825,0.024952516,-0.04075533,-37.969,29.371,-50.128,1
-0.4357447,4.8901567,7.689577,0.004807243,0.04480564,-0.042587925,-37.969,29.371,-50.437,1
-0.40043023,4.9386396,7.547721,0.032296177,0.051525153,-0.015709855,-37.969,29.371,-50.437,1
-0.32441434,4.8506527,7.6943655,0.0231332,0.06313159,-0.027010862,-37.969,29.371,-50.437,1
-0.26755205,4.9422307,7.4615297,0.044513483,0.019149296,-0.019985912,-37.969,29.371,-50.437,1
-0.35075054,4.855441,7.5531077,0.024049498,0.050914288,-0.059386723,-37.969,29.371,-50.437,1
-0.2753332,4.9296613,7.49026,0.025882093,0.007237427,-0.04411509,-37.969,29.371,-50.437,1
-0.31244332,4.876989,7.6847887,-0.007104628,0.04327847,-0.04197706,-37.969,29.371,-50.437,1
-0.32621,4.88058,7.5686703,0.0045018103,0.05824467,-0.024567401,-37.969,29.371,-50.437,1
-0.3417723,4.939238,7.7009497,0.0014474839,0.081762984,-0.02212394,-37.969,29.371,-50.437,1
-0.3405752,4.8404775,7.6003933,0.014886519,0.05916097,-0.03831187,-37.969,29.371,-50.437,1
-0.31004912,4.817134,7.6560583,0.027103825,0.056412075,-0.051445473,-37.969,29.371,-50.437,1
-0.28431144,4.7764325,7.5704656,0.019773442,0.029839441,-0.043809656,-37.969,29.371,-50.112,1
-0.39264908,4.8662148,7.72968,0.006945271,0.04480564,-0.04411509,-37.969,29.371,-50.424,1
-0.3405752,4.8745947,7.643489,0.017940845,0.017316699,-0.036479272,-37.969,29.371,-50.733,1
-0.2633622,4.9123034,7.6267295,0.05001127,0.028006844,-0.043809656,-37.969,29.371,-50.733,1
-0.29029694,4.865018,7.4866686,0.01152676,0.05580121,-0.032203216,-37.969,29.371,-50.392,1
-0.3309984,4.84766,7.6249337,0.008167002,0.10008894,-0.026705429,-37.969,29.371,-50.392,1
-0.29867667,4.8787847,7.6201453,0.017635413,0.06740765,-0.030981487,-37.969,29.371,-50.392,1
-0.338181,4.8464627,7.5495167,0.026492959,0.04327847,-0.048085712,-37.969,29.371,-50.392,1
-0.32800564,4.871003,7.5441294,0.009999597,0.05335775,-0.04442052,-37.969,29.371,-50.392,1
-0.2705448,4.836886,7.795521,0.027103825,0.02281449,-0.057859555,-37.969,29.371,-50.392,1
-0.3597288,4.824915,7.6387005,0.018857144,0.04785996,-0.039839033,-37.969,29.371,-50.392,1
-0.35434186,4.859631,7.4687123,0.05092757,0.059466403,-0.051750906,-37.969,29.371,-50.392,1
-0.39564183,4.863222,7.641693,0.014886519,0.06007727,-0.051445473,-37.969,29.371,-50.392,1
-0.30645782,4.9218802,7.553706,0.03351791,0.031061165,-0.05572153,-37.969,29.371,-50.392,1
-0.42916065,4.8524485,7.560889,0.030463584,0.06313159,-0.06824426,-37.969,29.371,-50.392,1
-0.362123,4.955399,7.5764513,0.036572237,0.0304503,-0.03831187,-37.969,29.371,-50.392,1
-0.31663316,4.9188876,7.577648,0.03382334,0.056717508,-0.052972637,-37.969,29.371,-50.392,1
-0.3250129,4.955399,7.483676,0.029547285,0.05427405,-0.037701003,-37.969,29.371,-50.392,1
-0.34955344,4.8883615,7.587824,0.019162577,0.045416504,-0.041366197,-37.969,29.371,-50.392,1
-0.35673606,4.9320555,7.504027,0.048178673,0.032282896,-0.043809656,-37.969,29.371,-50.392,1
-0.35194764,4.9278655,7.574057,0.030158151,0.021592759,-0.034035813,-37.969,29.371,-50.392,1
-0.2861071,4.945224,7.548918,0.01030503,0.043583907,-0.04075533,-37.969,29.371,-50.392,1
-0.30945057,4.882974,7.6973586,0.014275654,0.06526962,-0.0395336,-37.969,29.371,-50.392,1
-0.27952304,4.931457,7.6093717,0.004807243,0.04205674,-0.041671626,-37.969,29.371,-50.392,1
-0.3345897,4.917092,7.5985975,0.017635413,0.041140445,-0.0386173,-37.969,29.371,-50.392,1
-0.3465607,4.879383,6.88333,0.13705957,0.021898188,-0.025178267,-37.969,29.371,-50.392,1
-0.34117374,4.8817773,7.2460513,0.06925353,0.06313159,-0.042893358,-38.284,29.371,-50.704,1
-0.34715924,4.830302,7.7350674,-0.011380687,0.08512274,-0.047169417,-38.284,29.371,-51.02,1
-0.36990416,4.9146976,7.4926543,-0.0034394376,0.059466403,-0.052972637,-38.619,29.371,-51.02,1
-0.29688102,4.935647,7.5926123,0.012443058,0.038086116,-0.04411509,-38.619,29.678,-51.02,1
-0.29149407,4.8662148,7.6123643,0.011832193,0.017316699,-0.03159235,-38.952,29.678,-51.02,1
-0.21787235,4.8668137,7.6602483,0.008777866,0.033504628,-0.03586841,-38.952,29.678,-51.02,1
-0.27832595,4.883573,7.6027875,0.010915896,0.0463328,-0.045947686,-38.952,29.678,-50.666,1
-0.29388827,4.9015293,7.6907744,-0.0022177063,0.04908169,-0.05022374,-38.952,29.678,-50.666,1
-0.23463176,4.7866077,7.7159133,0.015191952,0.008459151,-0.04686398,-38.952,29.678,-50.666,1
-0.24480712,4.915296,7.4148426,0.008167002,0.049997993,-0.038922735,-38.952,29.678,-50.666,1
-0.29448682,4.8297033,7.6309195,0.028325554,0.04175131,-0.038922735,-38.952,29.678,-50.347,1
-0.29688102,4.815338,7.460931,0.02527123,0.046638235,-0.037090138,-38.952,29.978,-50.347,1
-0.21308395,4.811148,7.4567413,-0.010464389,-0.01933521,-0.034035813,-38.952,29.978,-50.347,1
-0.22505496,4.732738,7.7081323,-0.02115453,-0.024222136,-0.026705429,-38.952,29.978,-50.347,1
-0.2825158,4.742315,7.667431,0.038710263,0.020371027,-0.04900201,-39.273,29.978,-50.347,1
-0.13347675,4.7668557,7.6710224,0.07200242,0.054884914,-0.026705429,-39.273,29.978,-50.347,1
-0.02932897,4.88058,7.5327573,0.042070024,0.054884914,-0.020902209,-39.585,29.978,-50.347,1
-0.12509704,4.830302,7.7254906,0.013053924,0.07779236,-0.045031387,-39.585,29.978,-50.347,1
-0.024540568,4.835689,7.754221,0.021300605,0.07687606,-0.047169417,-39.585,29.978,-50.347,1
-0.29388827,4.771045,7.428011,0.035655938,0.11047365,-0.0404499,-39.585,29.978,-50.347,1
-0.17357962,4.8243165,7.6614456,0.029241852,0.04297304,-0.036479272,-39.585,29.978,-50.347,1
-0.055066638,4.869208,7.574057,0.04970584,0.03716982,-0.023040239,-39.263,29.978,-50.347,1
-0.23343466,4.848857,7.5046253,0.022522334,0.080235824,-0.014182692,-39.263,29.978,-50.347,1
-0.17357962,4.799776,7.5920134,0.019773442,0.067102216,-0.032203216,-39.263,29.978,-50.347,1
-0.1921347,4.7949877,7.6015906,0.022522334,0.041140445,-0.022734806,-39.263,29.978,-50.347,1
-1.2551602,6.736685,6.238691,0.2171626,0.03756821,-0.94042706,-32.646,19.709,-51.428,1
-1.1348516,6.7025676,6.2243257,-0.034208454,-0.16646078,-0.40011674,-33.607,20.783,-51.272,1
-1.1300632,6.654085,6.2500634,-0.04337143,-0.1863139,-0.3475823,-33.552,20.593,-52.079,1
-1.0887632,6.631939,6.10282,-0.017715093,-0.0421497,-0.013439035,-33.552,20.593,-52.459,1
-1.2204443,6.687604,6.130952,0.017104227,-0.003970624,-0.0143553335,-33.552,20.593,-52.459,1
-1.2599486,6.678027,6.4266357,-0.0067195175,-0.011301007,-0.031154128,-33.552,20.593,-52.459,1
-1.1426327,6.6415157,6.197391,-0.021991149,-0.013439035,-0.014049901,-33.552,20.593,-52.459,1
-1.2467805,6.63553,6.363788,0.00580322,-0.02076942,-0.03940081,-33.203,20.593,-52.459,1
-1.2366052,6.6786256,6.2045736,-0.004276057,0.032986723,-0.03390302,-33.203,20.593,-52.459,1
-1.2264298,6.6415157,6.389526,0.063224554,0.034208454,-0.016187929,-32.893,20.593,-52.459,1
-1.3072342,6.7534447,6.133346,0.17104226,0.17959438,0.012217305,-32.893,20.593,-52.107,1
-1.4221559,6.877943,6.067506,0.17592919,0.12858713,-0.0076358155,-32.591,20.243,-52.107,1
-1.4784195,7.0329676,5.837662,0.20677789,0.12858713,0.0027488936,-32.591,19.935,-52.107,1
-1.5460558,7.0754647,5.6269727,0.13255776,0.0870483,-0.013744468,-32.272,19.621,-52.107,1
-1.5819688,7.1125746,5.8125234,0.16676621,-0.0033597588,-0.035430185,-31.971,19.297,-51.73,1
-1.5921441,7.2382703,5.4887075,0.06719518,-0.034208454,-0.051618114,-31.971,18.984,-51.411,1
-1.6184803,7.223905,5.5778913,0.054061573,-0.049785517,-0.029626964,-31.669,18.669,-51.411,1
-1.5053543,7.325659,5.502474,0.105068825,-0.058337633,-0.0033597588,-31.669,18.669,-51.411,1
-1.532289,7.343615,5.4504004,0.018325957,-0.1151481,0.008857546,-31.669,18.367,-51.086,1
-1.4311341,7.465121,5.329493,0.019547688,-0.086132,0.028405234,-31.669,18.032,-50.769,1
-1.359308,7.3208704,5.4881086,-0.03634648,-0.13041973,-0.02687807,-31.968,18.032,-50.769,1
-1.316811,7.315483,5.7269306,-0.1255328,-0.055283304,-0.03634648,-31.968,18.032,-50.769,1
-1.283292,7.328053,5.66528,-0.032986723,-0.010995574,-0.032070424,-32.27,18.032,-51.124,1
-1.3599066,7.3208704,5.592855,0.029932396,0.027183503,-0.030543262,-32.27,18.032,-51.124,1
-1.4203602,7.318476,5.468955,0.028099801,0.046120327,-0.043066,-32.27,18.032,-51.429,1
-1.3970166,7.369353,5.569512,0.19853121,0.1386664,-0.053450707,-32.27,18.032,-51.429,1
-1.496376,7.393295,5.5862713,-0.03176499,-0.0290161,-0.03604105,-31.945,18.032,-51.101,1
-1.4371196,7.3843164,5.3396683,-0.1133155,-0.1337795,-0.032375857,-31.945,18.032,-51.101,1
-1.4718355,7.417835,5.2846017,0.02076942,-0.014660766,-0.05100725,-31.945,18.032,-50.801,1
-1.4999673,7.2622123,5.5880666,-0.13744467,0.004581489,-0.05222898,-31.945,18.032,-50.801,1
-1.4251486,7.2783732,5.6150017,-0.036957346,-0.041233405,-0.052534413,-31.945,18.032,-50.801,1
-1.4891934,7.347805,5.5748987,0.062308256,0.08093964,-0.03573562,-31.945,18.032,-50.801,1
-1.508347,7.3005195,5.6431336,0.05100725,-0.007330383,-0.04886922,-31.945,18.345,-50.801,1
-1.520318,7.3525934,5.3276973,0.031154128,0.005192355,-0.031154128,-31.945,18.345,-50.801,1
-1.5867572,7.359776,5.6443305,0.09040806,0.0015271631,-0.029626964,-31.643,18.345,-50.801,1
-1.5759833,7.436989,5.29777,0.016187929,-0.0018325958,-0.03176499,-31.643,18.038,-50.801,1
-1.5478514,7.41185,5.393538,0.046120327,-0.024740042,-0.030848695,-31.643,18.038,-50.801,1
-1.6041151,7.439383,5.329493,0.00061086525,-0.04184427,-0.03970624,-31.643,18.038,-50.801,1
-1.5466543,7.435792,5.391742,-0.034898996,-0.035337225,0.00023903511,-31.643,17.727,-50.801,1
-1.5586253,7.4070616,5.459977,-0.021154528,-0.052441448,0.0011553317,-31.643,17.727,-50.801,1
-1.5233108,7.399879,5.410896,-0.0061883293,-0.029839434,0.012761772,-31.643,17.727,-51.127,1
-1.5191209,7.459734,5.3181205,0.007250706,-0.021287322,0.010623744,-31.643,17.727,-51.127,1
-1.5436616,7.433398,5.4102974,-0.028790344,-0.018232994,0.015510665,-31.643,17.727,-50.791,1
-1.459266,7.4310036,5.397129,-0.028790344,-0.03716982,0.0075694174,-31.643,17.727,-50.791,1
-1.5658079,7.4387846,5.309741,-0.012296982,-0.006015688,0.01612153,-31.643,17.727,-50.791,1
-1.4688427,7.419631,5.41329,-0.012602415,-0.009680882,0.017954126,-31.643,17.727,-50.791,1
-1.5520413,7.441777,5.33488,-0.035815295,0.036744878,0.03475292,-31.643,17.727,-50.791,1
-1.5251064,7.3609734,5.41329,-0.055057548,0.040410064,0.017954126,-31.643,17.727,-50.791,1
-1.5239093,7.3885064,5.507262,-0.017489336,-0.016400404,0.029255133,-31.643,17.727,-50.791,1
-1.5406688,7.3699512,5.434838,-0.027263181,-0.027090542,0.015205232,-31.643,17.727,-51.098,1
-1.5304934,7.3747396,5.5778913,-0.016573038,0.007423345,0.010623744,-31.643,17.727,-51.098,1
-1.4957775,7.3789296,5.3875523,-0.025736017,0.0019255579,0.017037828,-31.643,17.727,-51.098,1
-1.5095441,7.3645644,5.5018754,-0.02359799,0.023611274,0.010318311,-31.643,17.727,-51.098,1
-1.4975731,7.3645644,5.4659624,-0.030622939,0.007728778,0.014594368,-31.643,17.727,-51.098,1
-1.5346833,7.383718,5.439028,-0.016267605,0.011393968,0.004209658,-31.643,17.727,-51.098,1
-1.5682021,7.378331,5.430648,-0.030928371,0.024833001,0.010012878,-31.643,17.727,-51.098,1
-1.5825673,7.385514,5.439028,-0.04009135,0.030941654,0.0017661974,-31.643,17.727,-51.098,1
-1.6118963,7.361572,5.4911017,-0.020849096,0.01628089,0.010012878,-31.643,17.727,-51.098,1
-1.5693992,7.325659,5.346851,-0.031844668,0.008034207,0.0014607646,-31.643,17.727,-51.408,1
-1.6232687,7.3460093,5.5802855,-0.040702216,0.0013146922,0.013372637,-31.643,17.727,-51.408,1
-1.6304513,7.3442135,5.445612,-0.04222938,0.040104635,0.0148998,-31.643,17.727,-51.408,1
-1.6262615,7.3124905,5.471948,-0.015962172,0.004063584,0.008791148,-31.336,18.035,-51.408,1
-1.6537948,7.325659,5.4647655,-0.036120728,0.00070382655,0.008791148,-31.336,18.035,-51.065,1
-1.6466122,7.2885485,5.5180364,-0.054446682,0.0046744496,0.008791148,-31.336,18.035,-51.065,1
-1.6843209,7.2819643,5.53719,-0.064220525,0.029719926,0.020092154,-31.336,18.035,-51.065,1
-1.7052702,7.2107368,5.5288105,-0.08987687,0.06301208,0.017954126,-31.336,18.035,-51.065,1
-1.7190368,7.179612,5.6102133,-0.062387932,0.092639044,0.02650624,-31.336,18.345,-51.065,1
-1.8243817,7.1610575,5.6467247,-0.044978272,0.15097667,0.03108773,-31.336,18.345,-51.065,1
-1.8866309,7.138911,5.6203885,0.18073644,0.35989258,0.0017661974,-30.984,18.345,-51.065,1
-2.1667526,7.3298483,5.2121773,0.076583914,0.34950787,0.0017661974,-30.651,18.345,-51.065,1
-2.28347,7.3460093,5.2319293,0.0096941665,0.08866842,-0.013505435,-30.03,18.345,-50.735,1
-2.2200236,7.282563,5.379173,-0.071550906,0.025443867,-0.003120724,-29.711,18.345,-50.405,1
-2.3421278,7.244256,5.5102553,-0.054141253,0.029414494,-0.040078074,-29.711,18.019,-50.405,1
-2.4420857,7.2298903,5.379173,-0.06727485,0.049573045,-0.015948894,-29.711,18.019,-50.721,1
-2.2762873,7.2328835,5.085284,0.017024549,-0.04755453,0.0054313894,-29.711,18.019,-50.721,1
-2.3247697,7.265205,5.3420625,-0.059333608,-0.02464708,-0.008618511,-29.803,18.324,-50.408,1
-2.3068132,7.217321,5.510854,-0.011380684,-0.043583907,-0.0015935618,-29.803,18.324,-50.408,1
-2.2996306,7.281366,5.331289,0.021911472,-0.058855534,0.011540041,-29.478,18.324,-50.408,1
-2.1871033,7.207744,5.3103395,-0.0061883293,-0.021287322,0.020397587,-29.478,18.324,-50.712,1
-2.2768857,7.2460513,5.403115,-0.040702216,0.005285315,0.011540041,-29.478,18.324,-50.712,1
-2.2284033,7.221511,5.3342814,-0.044367407,-0.025257945,0.018564992,-29.478,18.324,-50.712,1
-2.2451627,7.2322845,5.346851,-0.036120728,0.012004834,0.02070302,-29.478,18.324,-50.712,1
-2.2661119,7.234679,5.478532,-0.0330664,0.005896181,0.02192475,-29.478,18.324,-50.712,1
-2.2559366,7.2149267,5.3875523,-0.032455534,0.014448293,0.024979077,-29.478,18.324,-50.712,1
-2.2655134,7.2059484,5.3863554,-0.031844668,0.016891755,0.023757346,-29.478,18.324,-50.399,1
-2.272696,7.2149267,5.381567,-0.022070825,-0.007848285,0.02528451,-29.478,18.324,-50.399,1
-2.2703018,7.1867948,5.4366336,0.0005311887,-0.025563382,0.010318311,-29.478,18.324,-50.399,1
-2.1757307,7.20954,5.3199162,-0.004050301,-0.03625352,-0.00037183054,-29.478,18.324,-50.399,1
-2.2379801,7.2179193,5.5940523,-0.017489336,-0.028006844,-0.0141163,-29.478,18.324,-50.399,1
-1.797447,7.374141,5.4737434,0.1138467,-0.09947808,-0.009840243,-29.478,18.324,-50.399,1
-2.1888988,7.1981673,5.331289,-0.12744509,0.09050102,0.011540041,-29.478,18.324,-50.399,1
-2.3038206,7.0006456,6.108207,0.083914295,0.35989258,0.04727566,-29.478,18.324,-50.703,1
-3.0292637,7.587225,4.489128,-0.23098673,0.6036278,-0.051684514,-29.478,18.324,-50.398,1
-3.1866825,7.2370734,5.3049526,-0.053530388,-0.11719316,-0.12285032,-29.15,18.324,-50.398,1
-2.7539306,7.2484455,4.988918,0.058257956,-0.3600121,0.060103826,-29.176,18.634,-50.398,1
-1.816002,7.192182,4.64535,-0.66622823,-0.557627,0.14562497,-29.551,18.937,-50.398,1
-1.763928,6.5098343,5.9920883,-0.5675735,-0.33343947,-0.030915095,-30.209,19.604,-51.033,1
-1.6627731,6.136339,6.411672,-0.50893044,-0.3010636,-0.053211674,-30.563,20.365,-51.809,1
-1.91596,6.041768,6.666056,-0.12744509,-0.014262371,0.0112346085,-30.905,21.548,-52.468,1
-1.9482816,6.027403,6.8360443,-0.055973846,-0.0032667965,0.03597465,-31.246,22.193,-52.468,1
-1.7818847,6.105813,6.397307,-0.12286359,0.033995982,0.06529618,-31.246,22.523,-52.804,1
-2.0386627,6.1207767,6.811504,-0.07491066,0.14547889,0.10316983,-31.246,22.523,-52.804,1
-1.9877859,5.7760115,7.129334,-0.37637267,0.076145686,0.23022981,-31.246,22.845,-52.804,1
-1.0289081,5.445013,7.162853,-0.29848734,0.021167811,0.2910109,-31.246,23.202,-52.804,1
-1.8860323,5.3462524,6.364985,-0.3009308,-0.0020450652,0.34140727,-31.246,23.895,-53.141,1
-0.83018947,5.064934,6.4350157,-0.2661115,-0.28762457,0.40493724,-31.246,24.243,-53.454,1
-0.88525605,4.882974,6.743868,-0.39683664,-0.40246725,0.38416782,-31.959,24.882,-53.765,1
-0.5267244,5.4246626,8.182783,-0.48632842,-0.32397106,0.18624751,-33.085,25.892,-53.765,1
-0.99299514,5.9519854,7.6919713,-0.08987687,0.11432476,-0.21295293,-33.847,26.576,-54.129,1
-0.9552865,5.2115784,6.8252707,0.019468011,0.14578432,0.051857147,-34.149,27.244,-54.129,1
-1.5376761,4.414908,6.093842,-0.42554733,0.38585436,0.38783303,-34.149,27.565,-54.129,1
-0.40222588,4.036624,6.7690067,-0.9307329,0.09477708,0.42570665,-33.776,27.882,-54.434,1
1.0708067,5.121197,9.873688,-0.6228568,0.17327327,-0.00953481,-33.46,29.055,-54.434,1
-2.8688521,0.33877954,11.995549,-0.59781134,0.08439237,-0.06634528,-33.122,30.577,-54.736,1
-0.47465047,0.7433996,8.196549,0.120260775,-0.33802095,0.37897548,-33.122,32.061,-54.736,1
0.3776853,-1.0181342,8.494029,0.14438996,-0.330996,-0.43286443,-33.122,32.717,-54.736,1
-2.3241713,-0.40880993,7.180211,0.6318604,0.2841453,-0.63139564,-33.122,33.05,-54.394,1
-1.2958617,3.4201171,9.727043,1.0753486,-0.36886966,-0.76761854,-33.439,32.257,-54.394,1
-4.648941,3.1082723,12.0488205,-0.60330915,1.7520545,-0.885821,-33.439,30.342,-54.394,1
-2.0320787,3.3800142,9.074623,1.599471,-0.35787407,0.04727566,-33.129,29.994,-54.394,1
-1.3461399,5.604826,4.7040076,0.93484956,-0.8377087,0.20518433,-32.431,27.79,-54.394,1
0.39743748,5.4605756,7.00304,0.5197666,-0.36153927,0.6749397,-32.783,24.612,-54.087,1
-1.4748282,7.237672,8.288726,0.33803424,0.17327327,-0.14209256,-33.889,23.997,-53.776,1
-0.85054016,5.655703,4.210802,0.8181743,-0.3224439,0.06560162,-34.193,23.063,-53.776,1
-0.0005985504,6.6445084,4.672883,0.6382745,0.03002536,0.48526603,-34.193,21.797,-53.439,1
-0.1921347,6.527791,6.136339,0.022522338,0.1830471,0.05124628,-34.193,20.762,-52.354,1
-0.320823,7.441179,5.756858,0.25006965,0.39593363,0.24091995,-34.193,20.024,-52.354,1
-0.25857377,7.459734,5.2474914,0.1297292,0.28109097,-0.00067726336,-33.824,19.705,-52.008,1
-0.45310268,7.1083846,4.811148,0.08696862,0.28109097,0.11385997,-33.453,19.038,-51.698,1
-0.52373165,6.8683662,4.944625,-0.2664169,0.13631591,0.1645618,-33.139,19.038,-51.377,1
-0.6895301,6.783372,5.9322333,-0.63324153,-0.026479676,-0.13323502,-32.806,19.038,-51.377,1
-1.697489,6.6026096,6.851607,-0.5150391,0.4023477,-0.057182297,-32.481,19.743,-51.377,1
-1.2467805,6.2769985,7.615956,-0.38370305,-0.015178673,-0.009840243,-32.145,20.96,-52.07,1
-0.49081135,6.384139,6.681618,0.2412121,-0.34626764,0.12638271,-32.145,21.711,-52.731,1
-1.0965444,6.1770406,6.297349,0.15110947,0.11310303,0.117219724,-32.145,22.015,-52.731,1
-0.82779527,6.384139,6.1926026,0.041459158,0.02788733,-0.0046478882,-32.49,22.015,-53.047,1
-0.92057055,6.2901664,6.443994,0.17157346,0.25360203,0.02650624,-32.49,22.015,-53.047,1
-1.3581109,6.30932,7.5267715,-0.1613481,-0.061298996,-0.09047446,-32.49,22.015,-52.693,1
-1.3180081,6.6732388,6.2464724,0.22013725,0.03002536,-0.049546488,-32.167,21.705,-52.693,1
-1.3844471,6.6947865,5.8885393,0.34169942,0.2841453,0.072932,-32.167,21.376,-52.693,1
-1.2533646,6.7205243,6.1943984,0.083914295,-0.045111068,0.03108773,-31.835,20.695,-52.693,1
-1.2844892,6.971317,5.7885814,0.10498915,0.18610144,-0.026028173,-31.523,20.06,-52.343,1
-1.4670471,7.0844426,5.840655,0.1999787,0.24260646,0.062852725,-31.523,19.741,-51.977,1
-1.6950948,7.1867948,5.668871,0.14622255,0.33881775,0.084233,-30.886,19.412,-51.654,1
-1.7088615,7.2628107,5.7484784,0.03687767,-0.057328373,0.014288935,-30.528,19.412,-51.284,1
-1.4670471,7.1622543,5.896919,-0.12530705,-0.30961573,-0.08161691,-30.528,19.412,-51.284,1
-1.3389573,7.1951747,5.283405,-0.07124548,-0.4265964,-0.11368733,-30.848,19.412,-51.284,1
-1.0947487,6.897695,5.828684,-0.17936863,-0.44308978,-0.16102938,-31.541,19.412,-51.6,1
-0.84814596,6.831256,6.531981,-0.10026158,-0.28854087,-0.018086923,-32.153,19.412,-51.905,1
-0.97982705,7.0108213,5.6150017,-0.10881369,0.13356702,0.08148411,-32.843,19.412,-51.905,1
-0.9415198,6.703765,6.3871317,-0.27710706,0.22916743,0.1019481,-32.843,19.725,-51.905,1
-1.4478935,6.685808,6.325481,-0.09965071,0.067899,0.037501812,-32.495,20.413,-52.235,1
-1.198298,6.5655,6.393716,0.3377288,-0.081457555,0.0860656,-32.194,20.413,-52.235,1
-1.1330559,6.719327,6.338649,-0.025125152,-0.1727819,-0.0018989947,-32.194,20.718,-52.235,1
-1.2659341,6.4846954,6.247071,-0.16195896,-0.05488491,-0.09230705,-32.194,20.718,-52.235,1
-1.2611457,6.525397,6.2404866,0.0133593585,-0.09550744,-0.027860766,-32.194,20.718,-52.235,1
-1.1294646,6.5128274,6.657676,0.10315655,0.07889458,0.06102013,-32.539,20.718,-52.235,1
-1.1767502,6.651691,6.229114,0.022216905,-0.03716982,0.00023903511,-32.539,20.718,-52.235,1
-1.1240777,6.5936313,6.149507,0.059785116,-0.12055293,0.01734326,-32.539,20.718,-52.235,1
-1.0642227,6.6349316,6.0986304,0.047873244,-0.037780687,0.0026824959,-32.539,20.718,-52.235,1
-0.9911995,6.6492968,6.4362125,-0.05963904,-0.012124345,-0.016254326,-32.539,20.718,-52.235,1
-1.1145009,6.849811,5.9980736,-0.07552153,-0.034420922,-0.019003222,-32.539,20.718,-52.235,1
-1.0007763,6.6504936,5.9124813,-0.0064937617,0.05262737,0.038723543,-32.839,20.718,-52.235,1
-1.1677719,6.595427,6.449381,-0.0043557333,-0.05366318,0.014594368,-32.839,20.718,-52.235,1
-0.9223662,6.5882444,6.443994,-0.048643466,-0.11902577,-0.00953481,-32.839,20.718,-52.235,1
-0.93014735,6.5858502,6.1399302,-0.015045876,-0.0463328,0.0148998,-32.839,20.718,-52.59,1
-0.97264445,6.5984197,6.0411696,0.036572237,-0.017622128,0.023757346,-32.839,20.718,-52.59,1
-1.021127,6.4781113,6.7564373,-0.09690181,0.0031472892,0.0008498989,-33.142,20.718,-52.59,1
-0.78170687,6.551733,6.4350157,0.041459158,-0.06954567,-0.008618511,-33.142,20.718,-52.905,1
-0.908001,6.3847375,6.731298,-0.093236625,0.044686124,0.014288935,-33.477,20.718,-52.905,1
-1.1605892,6.6247563,6.321291,0.019468011,0.23833041,0.0692668,-33.477,20.718,-52.905,1
-1.2413936,6.531981,5.5126495,-0.08010302,0.002230987,0.038723543,-33.477,20.718,-52.905,1
-0.801459,6.488885,7.3645644,-0.20655213,0.2364978,0.093701415,-33.477,20.718,-52.905,1
-0.96187055,6.7223196,6.123171,-0.02023823,0.10974327,0.05368974,-33.477,20.718,-53.268,1
-1.0426749,6.5936313,6.3248825,0.0026692166,0.049878478,0.037501812,-33.172,20.718,-53.268,1
-1.0307038,6.5762734,6.381745,-0.060249902,-0.015484102,0.017037828,-33.172,20.718,-52.967,1
-1.1031284,6.6163764,6.217143,-0.02023823,-0.04297304,0.0017661974,-32.859,20.718,-52.967,1
-0.9528923,6.59004,6.0519433,-0.048643466,0.00070382655,0.013983502,-32.859,20.718,-52.967,1
-1.0360907,6.417658,6.6947865,-0.119503826,-0.0014341995,-0.015032595,-32.859,20.718,-52.967,1
-0.92895025,6.4906807,6.5708866,-0.019321932,-0.014567807,0.009096581,-32.859,20.718,-52.967,1
-0.9840169,6.4499793,6.535572,0.005723543,-0.02434165,0.032309458,-32.859,21.037,-52.967,1
-0.9576807,6.540959,6.4487824,0.0023637838,-0.023425348,0.018870424,-32.859,21.037,-52.967,1
-0.95229375,6.5816603,6.342839,0.019468011,-0.07382174,-0.018086923,-32.859,21.037,-52.622,1
-0.9020155,6.5128274,6.1381345,0.052760165,-0.14071147,-0.031220527,-32.859,21.037,-52.622,1
-0.5967548,6.3823433,6.007052,0.23296542,-0.12452355,0.03383662,-32.859,21.037,-52.296,1
