ax,ay,az,gx,gy,gz,mx,my,mz,user
0.30705637,5.3737855,8.616134,-0.2144137,-0.17898351,0.42943826,-12.48,-0.321,-27.888,1
1.021127,4.6561236,9.054871,0.12614368,-0.77488256,0.03573562,-13.746,-3.521,-29.15,1
0.9367314,4.384382,8.5700445,0.054061573,0.14019357,-0.08002335,-13.824,-3.871,-29.931,1
0.059855044,4.578911,8.505402,-0.10048734,0.26816985,-0.42119157,-13.983,-3.442,-29.931,1
-0.59615624,4.635773,8.919599,-0.009468411,0.28985557,-0.25137106,-13.035,-3.813,-30.329,1
-0.63206923,4.787805,8.513782,0.101098195,0.19150625,-0.29077184,-12.332,-3.813,-30.329,1
-0.83018947,4.5795093,8.585608,0.0421497,0.11209377,-0.22479841,-11.357,-4.185,-30.329,1
-1.2982559,4.673482,8.670003,0.0580322,0.14202617,-0.22815818,-10.659,-5.169,-30.664,1
-1.2964603,4.7321396,8.497022,0.087964594,0.07788532,-0.129198,-10.334,-5.496,-30.975,1
-1.3036429,4.9158945,8.277354,0.09132435,0.0421497,-0.064751714,-10.334,-5.828,-30.975,1
-1.578976,4.754286,8.765172,-0.0033597588,0.01985312,0.07574729,-10.014,-5.828,-30.975,1
-1.0761937,4.8997335,8.38629,0.12675454,-0.09468412,0.16340645,-9.709,-6.158,-30.975,1
-0.62488663,5.0038815,8.321048,0.07391469,-0.07696902,0.20677789,-9.709,-6.459,-30.975,1
-0.7667431,4.88058,8.4587145,0.065973446,-0.042760566,0.19792034,-9.709,-6.459,-30.616,1
-0.65900403,5.155315,8.292916,0.15363261,-0.23273966,0.16432275,-10.032,-6.459,-30.313,1
-0.3585317,5.075109,8.464102,0.12370021,-0.36713,0.33536503,-10.742,-6.459,-30.004,1
-0.06584055,5.29358,8.581417,0.1301143,-0.3830125,0.3381139,-11.981,-6.459,-29.701,1
0.66379243,5.2648497,7.8829093,0.3585779,-0.36346483,0.40775254,-13.311,-6.459,-29.348,1
1.1109096,5.3845596,7.815273,0.4184427,-0.13561209,0.42149702,-14.27,-6.761,-29.008,1
1.8100165,5.557541,7.386112,0.15393804,0.022602014,0.2843578,-14.935,-7.08,-28.358,1
0.78050977,5.346851,7.349002,-0.16920967,0.33658674,0.063224554,-14.935,-7.08,-28.358,1
2.284667,5.4019175,8.515577,-0.102319926,-0.5338962,-0.23457226,-14.935,-7.08,-28.031,1
0.25438392,5.8717794,7.608773,0.14813483,0.4905248,-0.321926,-14.935,-7.08,-28.031,1
0.5279215,5.602432,7.9086466,0.172264,0.02076942,-0.06078109,-14.935,-7.08,-28.34,1
0.6099229,5.722142,7.414244,0.082161374,0.17837265,-0.1423316,-14.27,-7.728,-28.34,1
0.25318682,5.7125654,7.478289,-0.08307768,0.2947425,-0.111177474,-13.945,-7.728,-28.34,1
0.6428431,5.768829,8.53054,-0.21166481,0.094989546,-0.08368854,-13.287,-8.042,-28.34,1
-0.22864626,5.8268886,8.206725,0.03573562,0.04428773,-0.1554652,-12.953,-7.731,-28.675,1
0.10474633,5.456984,7.891887,-0.06352998,0.03176499,0.0021380284,-12.953,-7.406,-28.675,1
0.29209262,5.542577,8.121132,-0.11942416,-0.054061573,-0.03176499,-12.953,-7.102,-28.675,1
0.2621651,5.4964886,8.322245,-0.014966198,-0.04184427,-0.046120327,-12.953,-6.784,-28.675,1
0.3369839,5.4444146,7.9846625,0.0421497,-0.0076358155,-0.01740966,-12.953,-6.784,-28.675,1
0.08798691,5.1996074,8.328829,-0.051923547,0.018325957,-0.04184427,-12.953,-6.784,-28.675,1
0.207697,5.3558292,8.626308,0.026572637,-0.016493361,0.04153884,-12.953,-6.784,-28.675,1
0.4261679,5.5886655,8.073248,0.12889257,0.0143553335,0.015271631,-12.953,-6.784,-28.675,1
0.24001873,5.5324016,8.049905,0.108123146,0.05497787,0.010079277,-12.953,-6.784,-28.675,1
0.2681506,5.563526,7.989451,0.19639318,-0.049480084,-0.11209377,-12.953,-7.113,-28.675,1
-0.20530279,5.705383,8.209718,0.03970624,0.043982297,-0.047036625,-12.953,-7.438,-28.675,1
-0.16400282,5.805939,7.829638,0.023518313,0.17165314,-0.076052725,-12.953,-7.74,-28.675,1
0.032920275,5.680842,8.06008,-0.049480084,0.106595986,-0.032070424,-12.628,-7.74,-28.675,1
0.065242,5.6042275,8.098986,0.010995574,0.027488936,-0.021380283,-12.292,-7.412,-28.372,1
-0.009576807,5.645528,8.011598,0.055283304,-0.013133603,-0.077579886,-12.292,-7.412,-28.372,1
-0.092176765,5.799355,7.8613615,0.087659165,-0.03634648,-0.048563786,-12.292,-7.717,-28.764,1
0.009576807,5.8107276,7.7967176,0.032375857,0.013439035,-0.0580322,-12.292,-8.064,-28.764,1
0.019752163,5.675455,7.949947,-0.021991149,-0.016187929,-0.06505715,-12.292,-8.064,-28.764,1
-0.11492168,5.73112,8.034343,-0.0015271631,-0.082161374,-0.048563786,-12.292,-8.377,-28.764,1
-0.1352724,5.7161565,8.04392,-0.007330383,0.008857546,-0.03756821,-12.292,-8.377,-28.764,1
-0.06464344,5.683236,7.8368206,0.009773844,0.029626964,-0.0076358155,-12.292,-8.377,-28.764,1
0.026934769,5.675455,8.110358,-0.013133603,-0.0030543262,-0.022602014,-12.292,-8.377,-28.764,1
0.034715924,5.7598505,7.900267,0.043982297,0.0009162979,0.011301007,-12.292,-8.377,-28.764,1
-0.04129998,5.6497173,7.991845,-0.03604105,0.01985312,0.021380283,-12.292,-8.377,-28.764,1
-0.079008654,5.629367,8.025963,-0.017715093,0.0290161,0.038179077,-12.292,-8.377,-29.069,1
-0.08559271,5.6766524,8.078635,-0.03145956,0.06169739,0.06811147,-12.292,-8.377,-29.069,1
-0.007182605,5.6778493,7.933786,0.050701816,0.041233405,0.022907447,-12.292,-8.032,-29.069,1
-0.1364695,5.7065797,7.8547773,0.01740966,0.01038471,0.018325957,-12.292,-8.032,-29.069,1
-0.6907272,5.952584,8.395268,0.11789699,-0.06658431,0.08277224,-12.292,-8.032,-29.069,1
0.6584055,5.6389437,8.2276745,0.118202426,-0.23365596,0.7874053,-12.292,-8.032,-29.069,1
1.2551602,5.6299653,8.527548,0.053450707,-0.2855795,0.18967366,-13.053,-7.717,-28.417,1
0.89543146,5.886145,7.5734587,0.5027421,0.57879484,0.06566802,-13.69,-7.379,-27.685,1
0.6955156,6.0399723,7.1263413,0.25259277,0.27458394,-0.3036,-13.69,-7.379,-27.685,1
0.2633622,5.689222,7.9888525,-0.01160644,0.010995574,-0.19364429,-12.673,-8.416,-28.016,1
0.45489833,6.201581,6.933608,0.15668693,0.27183503,-0.064446285,-12.333,-8.836,-28.33,1
-0.427365,6.6882024,7.4429746,-0.1020145,0.09437868,-0.2733622,-12.004,-9.156,-28.642,1
-0.29269117,6.1728506,7.5171947,-0.12858713,-0.30115658,-0.14569137,-11.692,-9.156,-28.642,1
-0.009576807,5.7305217,7.5566993,0.050701816,0.014049901,-0.108123146,-11.692,-9.156,-28.642,1
0.25139117,6.0561333,8.8088665,-0.1994475,0.31429017,-0.31306845,-11.692,-9.156,-28.338,1
-0.5057751,6.5744777,8.195353,0.08674286,0.1563815,-0.61819565,-10.981,-9.484,-28.657,1
-0.66139823,6.628946,7.245453,0.41141775,-0.20952678,-0.45081854,-10.192,-10.18,-28.657,1
-1.3634979,6.393716,6.489484,0.18784106,-0.52015173,-0.15515977,-9.819,-10.859,-28.657,1
-1.2976574,4.7722425,5.544971,-0.3811799,-0.9633345,0.45356745,-10.174,-11.491,-27.969,1
-0.45250413,6.2626333,6.9006877,-0.8188649,-0.45906523,0.21868975,-11.738,-11.186,-27.664,1
1.1264719,5.7508726,8.471284,-0.053145275,0.5326745,0.9550878,-13.206,-10.063,-27.343,1
0.427365,5.4539914,10.177153,-0.7309003,0.14813483,0.10262536,-13.835,-8.755,-27.676,1
0.8379706,5.345055,9.737817,-0.086132,-0.42852196,-0.0729984,-14.155,-7.734,-28.311,1
0.52373165,5.2397103,8.5862055,0.32834008,-0.12644911,-0.049785517,-14.509,-7.026,-28.311,1
1.1701661,5.457583,7.430405,0.43310347,0.034513887,0.10476339,-15.129,-6.687,-28.311,1
1.1456255,5.563526,7.703344,0.087964594,0.0888809,-0.003970624,-15.129,-7.337,-28.311,1
1.0672154,5.828684,7.7266874,0.07544186,0.0729984,-0.12370021,-15.129,-7.659,-28.01,1
0.55485624,5.813122,8.038532,-0.10903945,0.0036651916,-0.13683382,-15.129,-7.974,-28.01,1
0.6434417,5.6341553,8.185776,-0.014049901,0.034513887,-0.035430185,-14.804,-7.974,-28.01,1
0.6290765,5.5671177,8.030152,0.02565634,-0.010079277,-0.0290161,-14.804,-7.974,-27.708,1
0.8367735,5.707777,7.7973166,0.06383542,-0.0030543262,-0.018325957,-14.804,-7.974,-27.708,1
0.8062474,5.6586957,8.073847,-0.00580322,0.03359759,-0.038179077,-14.804,-7.974,-27.708,1
0.6206968,5.6467247,8.122928,0.022907447,0.020463986,-0.08827003,-14.503,-7.974,-27.708,1
0.60453594,5.6323595,7.569867,0.0009162979,-0.021380283,-0.087964594,-14.503,-7.974,-27.708,1
0.878672,5.5288105,7.6404963,-0.14721853,-0.10873401,-0.0720821,-14.503,-7.974,-27.708,1
0.36272156,5.680842,8.271368,-0.14966199,-0.004276057,-0.15118915,-14.503,-7.974,-27.708,1
0.57161564,5.159505,8.872313,-0.09132435,-0.053450707,-0.06566802,-14.503,-7.974,-27.708,1
0.3537433,5.54557,7.867347,0.15943582,0.028405234,-0.12461651,-14.503,-7.649,-27.708,1
0.38726214,5.589264,7.6351094,0.033292156,0.07666359,-0.07941248,-14.503,-7.649,-27.708,1
0.6183026,5.616797,8.462306,-0.18478674,-0.017104227,0.016493361,-14.189,-7.649,-27.708,1
0.86370826,5.1265845,8.593987,0.056199603,-0.076358154,0.07147124,-14.189,-7.949,-27.708,1
0.557849,5.1888337,8.087015,0.0983493,-0.022602014,-0.12797627,-14.189,-7.949,-28.027,1
-0.16759412,5.7203465,7.988254,0.077579886,0.10170906,-0.18875736,-14.189,-7.949,-28.027,1
0.09696517,5.5641246,8.086416,0.030848695,0.09132435,0.06872234,-14.189,-7.949,-28.027,1
0.66379243,5.485116,8.206126,0.02687807,0.036957346,0.1777618,-13.868,-7.949,-28.027,1
0.8774749,5.2798133,8.178593,0.046731193,-0.021685716,0.15851954,-13.868,-8.268,-28.027,1
0.760159,5.295376,8.26658,0.013744468,-0.061391957,-0.031154128,-13.868,-8.268,-28.027,1
0.36391866,5.6203885,8.098388,-0.0036651916,-0.016187929,-0.12095132,-14.195,-8.268,-28.027,1
0.5351041,5.543774,8.550293,0.007330383,-0.0076358155,-0.042760566,-14.195,-8.268,-28.027,1
0.55725044,5.3145294,7.7063365,0.17806722,0.029321533,-0.025961773,-14.195,-8.268,-28.027,1
0.32561144,5.741296,7.7248917,-0.03145956,0.038179077,-0.062308256,-14.195,-8.268,-28.027,1
0.3585317,5.4911017,8.185776,-0.00030543262,0.0693332,0.02565634,-14.195,-8.268,-28.027,1
0.28491,5.519832,8.165425,-0.01160644,0.056199603,-0.009162978,-14.195,-8.268,-28.027,1
0.3812766,5.583877,8.052299,0.025350908,0.03268129,0.06505715,-13.882,-8.268,-28.027,1
0.712275,5.4378304,8.086416,-0.009468411,0.004886922,0.09040806,-13.882,-8.268,-28.027,1
0.82599956,5.485116,8.315661,-0.016493361,-0.047036625,0.026572637,-13.882,-8.268,-28.027,1
0.8170213,5.229535,8.18398,0.07147124,-0.103847094,-0.047036625,-13.882,-7.951,-28.027,1
0.36272156,5.659893,8.046912,0.010079277,-0.021685716,-0.14935656,-13.882,-7.951,-28.027,1
0.44771573,5.515642,8.129512,0.043982297,0.008552114,-0.04734206,-14.198,-7.951,-27.717,1
0.40940848,5.439626,7.8942814,0.04917465,0.034513887,-0.06841691,-14.198,-7.951,-27.717,1
0.47764325,5.649119,8.158841,-0.02565634,0.019547688,-0.0021380284,-14.198,-7.951,-27.717,1
0.61530983,5.273229,8.18398,0.015271631,0.015882496,0.00061086525,-14.198,-7.951,-27.717,1
0.11671733,5.6066217,7.9996266,0.009468411,-0.0061086523,-0.09621128,-14.198,-7.951,-27.717,1
0.32800564,5.5563436,8.082227,-0.02076942,0.042455133,0.04520403,-14.198,-7.951,-27.717,1
0.6428431,5.403713,8.206725,-0.02443461,0.019547688,0.06811147,-14.198,-7.951,-27.717,1
0.6440403,5.383961,8.1642275,0.004276057,-0.011301007,-0.014049901,-14.198,-7.951,-27.717,1
0.4213795,5.4192758,8.028357,0.036957346,-0.025045475,-0.070249505,-14.198,-7.951,-27.717,1
0.32202014,5.4354362,8.191761,0.0021380284,-0.01038471,-0.06811147,-14.198,-7.951,-27.717,1
0.3681085,5.395932,8.013991,0.025045475,-0.015882496,-0.03359759,-14.198,-7.951,-27.717,1
0.42556936,5.467758,8.247426,-0.04337143,0.0143553335,-0.0143553335,-14.198,-7.951,-28.051,1
0.5979519,5.318719,8.250419,0.01282817,-0.0036651916,0.010079277,-14.198,-7.951,-28.353,1
0.39683893,5.3995233,8.237849,0.009468411,-0.007330383,-0.04428773,-14.198,-7.951,-28.353,1
0.3812766,5.357625,8.22528,0.014049901,0.0009162979,-0.019242255,-14.198,-7.951,-28.353,1
0.49679685,5.3504424,8.185776,0.009773844,0.012217305,-0.00061086525,-14.198,-7.951,-28.353,1
0.4782418,5.3181205,8.284536,0.005497787,0.0067195175,-0.014049901,-14.198,-7.951,-28.353,1
0.42916065,5.3462524,8.189965,0.00061086525,0.0021380284,-0.025961773,-14.198,-7.951,-28.353,1
0.42197806,5.3199162,8.272566,-0.006414085,0.0143553335,-0.013133603,-14.198,-7.601,-28.048,1
0.40102878,5.3995233,8.18398,0.0021380284,0.0067195175,-0.013133603,-14.198,-7.601,-28.048,1
0.3657143,5.3743844,8.256405,-0.0033597588,0.02443461,0.014660766,-14.198,-7.904,-28.048,1
0.5033809,5.3049526,8.265383,0.019242255,0.014660766,0.0290161,-14.198,-7.904,-28.048,1
0.44592008,5.313332,8.248025,0.034208454,0.0106901415,-0.0015271631,-14.198,-7.574,-28.048,1
0.49799395,5.3157263,8.246229,0.026572637,-0.021685716,-0.03756821,-14.198,-7.574,-28.048,1
0.46926352,5.37199,8.198944,0.013744468,-0.036957346,-0.04337143,-14.198,-7.574,-28.048,1
0.545878,5.2804117,8.286931,0.018936822,0.00030543262,0.0076358155,-14.198,-7.887,-28.384,1
0.4770447,5.3342814,8.268974,0.017715093,-0.00580322,-0.01863139,-14.198,-7.887,-28.384,1
0.44771573,5.367202,8.2169,0.029932396,-0.003970624,-0.009773844,-14.198,-7.887,-28.384,1
0.46088383,5.354632,8.213907,0.016798794,0.005497787,-0.00061086525,-14.198,-7.887,-28.053,1
0.45070848,5.3402667,8.185776,0.0290161,0.017104227,0.005497787,-14.198,-7.887,-28.053,1
0.46507367,5.3300915,8.27077,0.009773844,0.01282817,-0.008552114,-14.198,-7.887,-28.053,1
0.49320555,5.3444567,8.149264,0.03359759,0.0076358155,-0.01160644,-14.198,-7.887,-28.053,1
0.47225627,5.3636103,8.171411,0.008857546,0.01282817,-0.022907447,-14.198,-7.887,-28.053,1
0.41958386,5.317522,8.27077,0.00061086525,0.022602014,-0.01282817,-14.198,-7.887,-28.053,1
0.5674258,5.333084,8.119336,0.028710667,-0.012217305,-0.004276057,-14.198,-7.887,-28.053,1
0.45250413,5.3169236,8.282741,-0.013439035,0.0027488936,-0.027794369,-14.198,-7.887,-28.053,1
0.3878607,5.397129,8.191761,0.007941248,0.01160644,-0.025961773,-14.198,-7.887,-28.053,1
0.45010993,5.336077,8.213907,0.005497787,0.014049901,0.0012217305,-14.198,-7.887,-28.053,1
0.48961425,5.3169236,8.189367,0.01282817,0.009162978,-0.02076942,-14.198,-7.887,-28.053,1
0.3645172,5.309142,8.310274,0.009162978,0.007941248,-0.028710667,-14.198,-7.887,-28.053,1
0.45190558,5.29358,8.22109,0.014966198,0.0027488936,-0.010079277,-14.198,-7.887,-28.053,1
0.44891283,5.317522,8.278551,0.0015271631,0.0033597588,-0.0067195175,-14.198,-7.887,-28.353,1
0.4381389,5.3384714,8.207323,0.003970624,0.002443461,-0.010079277,-14.198,-7.887,-28.353,1
0.46866497,5.271434,8.274361,-0.003970624,0.022602014,-0.020463986,-14.198,-7.887,-28.663,1
0.41299978,5.2726307,8.32045,0.02565634,0.017715093,-0.029626964,-14.198,-7.887,-28.663,1
0.3890578,5.3474493,8.176797,0.01038471,0.005497787,-0.021380283,-14.198,-7.887,-28.663,1
0.42796355,5.283405,8.265383,-0.0067195175,0.017715093,0.0033597588,-14.198,-7.887,-28.663,1
0.39923313,5.281609,8.297106,0.008552114,0.018020526,-0.01282817,-14.198,-7.887,-28.663,1
0.39683893,5.3007627,8.169016,0.061391957,0.040927973,0.006414085,-14.198,-7.887,-28.34,1
0.3764882,5.2965727,8.282143,0.014049901,0.02687807,-0.003970624,-14.198,-7.887,-28.34,1
0.415394,5.319318,8.257003,0.03634648,0.023518313,-0.0061086523,-13.896,-7.887,-28.34,1
0.32142156,5.333683,8.101978,0.028710667,0.009162978,-0.03573562,-13.896,-7.887,-28.34,1
0.35553896,5.315128,8.236652,0.0030543262,0.011301007,-0.023823744,-13.896,-7.887,-28.34,1
0.38307226,5.2768207,8.24204,0.015882496,0.005497787,-0.009468411,-13.896,-7.887,-28.016,1
0.35434186,5.318719,8.252214,0.0125227375,0.004886922,-0.017104227,-13.896,-7.887,-28.016,1
0.42197806,5.2941785,8.194754,0.044898596,-0.0009162979,0.0027488936,-13.896,-7.563,-28.016,1
0.30406362,5.2768207,8.277354,0.017715093,-0.005497787,-0.020158553,-13.896,-7.563,-28.016,1
0.34117374,5.3079453,8.220491,0.025350908,0.005192355,-0.0027488936,-13.896,-7.238,-28.016,1
0.39025488,5.266645,8.276156,0.013439035,0.014660766,0.0030543262,-13.896,-7.238,-28.016,1
0.32142156,5.253477,8.270171,0.019242255,0.004886922,-0.0070249503,-13.896,-7.238,-28.016,1
0.2885013,5.306748,8.145673,0.02687807,0.00580322,-0.020158553,-13.896,-7.563,-28.016,1
0.3561375,5.2744265,8.330625,0.015577064,0.019242255,-0.01160644,-13.896,-7.563,-28.016,1
0.38606504,5.315128,8.228272,0.034208454,0.0018325958,0.00030543262,-13.896,-7.864,-28.326,1
0.3776853,5.258864,8.311471,0.002443461,-0.006414085,-0.0143553335,-13.896,-7.864,-28.326,1
0.46866497,5.2840033,8.224083,0.008246681,-0.010079277,-0.007330383,-13.896,-7.864,-28.326,1
0.23702596,5.3324857,8.170214,0.00580322,-0.02076942,0.014660766,-13.896,-7.864,-28.326,1
0.35913026,5.2780175,8.231265,-0.00061086525,0.0693332,0.063224554,-14.236,-7.864,-28.326,1
0.5081693,5.1648917,8.400057,-0.016798794,-0.014049901,0.048258353,-14.959,-7.548,-28.628,1
0.52253455,5.1786585,8.41921,-0.013133603,-0.017715093,0.0030543262,-15.263,-7.548,-28.932,1
0.5081693,5.222951,8.236053,0.019547688,0.00030543262,-0.02443461,-15.263,-7.548,-28.932,1
0.427365,5.2474914,8.301894,0.049480084,0.011911872,0.008857546,-15.263,-7.225,-28.932,1
0.49320555,5.228338,8.375516,0.043676864,-0.015577064,0.01160644,-15.263,-6.889,-28.268,1
0.5033809,5.315128,8.342596,0.05955936,-0.018020526,-0.0076358155,-15.263,-6.889,-27.958,1
0.47884035,5.281609,8.227076,0.084910266,-0.01282817,-0.01282817,-15.263,-6.889,-27.958,1
0.4381389,5.321712,8.198944,0.03848451,-0.013439035,-0.026572637,-15.263,-7.22,-27.958,1
0.5506664,5.374983,8.185177,0.03359759,0.010079277,0.0018325958,-15.263,-7.22,-27.958,1
0.5398925,5.329493,8.263587,0.01740966,0.01038471,-0.01160644,-15.263,-7.22,-27.958,1
0.5201403,5.427057,8.198345,0.06811147,-0.035124753,-0.049785517,-15.263,-7.22,-27.958,1
0.50757074,5.380968,8.153454,0.035124753,-0.0009162979,-0.03970624,-15.263,-7.22,-27.958,1
0.4914099,5.421071,8.065467,0.056505036,-0.00061086525,-0.03940081,-15.263,-7.545,-27.958,1
0.43275195,5.4264584,8.209718,0.017715093,0.015882496,-0.025350908,-15.263,-7.545,-27.958,1
0.5177461,5.4366336,8.028357,0.021685716,0.0021380284,-0.0125227375,-14.929,-7.893,-27.958,1
0.40880993,5.459977,8.122928,0.016798794,0.017104227,0.003970624,-14.604,-8.198,-27.958,1
0.5446809,5.4204726,8.157643,0.011301007,0.0012217305,0.017715093,-14.604,-8.198,-27.958,1
0.62847793,5.3558292,8.152257,0.009162978,-0.004276057,0.020158553,-14.604,-7.878,-27.958,1
0.58298814,5.3486466,8.127716,0.03848451,0.06169739,-0.04642576,-15.303,-7.878,-27.958,1
0.36870706,5.3636103,8.255806,0.0021380284,-0.04062254,-0.046120327,-15.625,-7.878,-27.958,1
0.51116204,5.4043117,8.125322,0.027794369,0.0061086523,0.010079277,-15.625,-7.878,-28.297,1
0.5781997,5.3821654,8.148665,-0.012217305,0.02107485,-0.023518313,-15.625,-7.878,-28.297,1
0.45310268,5.3606176,8.258201,-0.0125227375,0.024740042,-0.05497787,-15.625,-7.878,-28.297,1
0.52133745,5.3504424,8.279748,0.021991149,-0.010995574,-0.04184427,-15.283,-7.878,-27.993,1
0.5518635,5.419874,8.100781,0.08307768,0.011911872,-0.03481932,-14.981,-7.878,-27.993,1
0.4369418,5.4180784,8.099585,0.034513887,0.004276057,-0.026267206,-14.981,-7.878,-27.993,1
0.37828386,5.383961,8.237251,-0.0076358155,0.00580322,-0.010995574,-14.981,-7.878,-27.993,1
0.55725044,5.3683987,8.148665,0.018020526,0.004276057,0.013744468,-14.675,-7.878,-27.993,1
0.51714754,5.393538,8.223484,-0.010995574,0.007941248,-0.015271631,-14.675,-7.878,-27.65,1
0.5315128,5.4043117,8.213309,0.004886922,0.0015271631,-0.017104227,-14.675,-7.878,-27.65,1
0.56084174,5.3803697,8.1959505,0.01863139,0.004581489,-0.007330383,-14.675,-7.878,-27.65,1
0.46567222,5.354632,8.204929,-0.00061086525,0.0076358155,-0.010079277,-14.987,-7.878,-27.973,1
0.49559975,5.3378725,8.252214,-0.009162978,0.005497787,-0.015271631,-14.987,-7.878,-27.973,1
0.5093664,5.353435,8.192958,0.0012217305,0.00061086525,-0.02565634,-14.987,-7.878,-27.973,1
0.4189853,5.367202,8.228272,0.015271631,0.010079277,-0.03268129,-14.683,-7.878,-27.656,1
0.4381389,5.357625,8.205527,0.01863139,0.009773844,-0.019547688,-14.36,-7.878,-27.656,1
0.47884035,5.33488,8.23366,0.018936822,0.01038471,-0.0125227375,-14.36,-7.565,-27.308,1
0.46208093,5.336077,8.288726,-0.0033597588,0.0070249503,-0.010995574,-14.36,-7.565,-27.308,1
0.4914099,5.3235073,8.252214,0.006414085,0.008552114,-0.01038471,-14.36,-8.215,-27.966,1
0.4758476,5.3145294,8.158242,0.024129177,0.0027488936,-0.0030543262,-14.678,-8.215,-28.269,1
0.55126494,5.345654,8.177995,0.021685716,-0.0021380284,-0.004276057,-15.01,-8.215,-28.269,1
0.46627077,5.3420625,8.219893,0.02076942,0.024129177,0.0015271631,-15.01,-8.215,-28.269,1
0.4794389,5.2983685,8.222886,0.021380283,0.020463986,-0.0143553335,-15.01,-8.215,-28.269,1
0.45370123,5.345055,8.236652,0.005497787,0.002443461,-0.014049901,-14.706,-8.215,-28.269,1
0.4794389,5.321113,8.209119,0.019547688,0.00030543262,-0.0030543262,-14.706,-8.215,-28.269,1
0.45848963,5.2941785,8.313866,-0.008552114,0.0106901415,-0.019242255,-14.367,-8.215,-28.269,1
0.4758476,5.3259015,8.170214,0.03756821,-0.0018325958,-0.007330383,-14.367,-8.215,-27.955,1
0.5177461,5.291186,8.239645,0.022296581,0.006414085,0.008552114,-14.367,-8.215,-27.955,1
0.41958386,5.321113,8.234857,0.028099801,-0.004581489,-0.016187929,-14.367,-8.215,-27.955,1
0.39025488,5.309142,8.224682,0.0021380284,0.006414085,0.016493361,-14.367,-8.215,-27.955,1
0.47225627,5.3899465,8.264784,-0.02687807,0.0076358155,0.076052725,-14.367,-8.215,-27.616,1
0.8110358,5.125387,8.359355,-0.005192355,0.026572637,0.060170226,-14.367,-8.215,-27.616,1
0.58538234,5.2875943,8.183381,0.046731193,0.0106901415,-0.08307768,-14.367,-7.91,-27.616,1
0.2801216,5.4312468,8.189965,0.01740966,-0.00061086525,-0.054061573,-14.367,-7.91,-27.616,1
0.5303157,5.303157,8.265383,0.008857546,0.018020526,0.04917465,-14.367,-7.91,-27.92,1
0.5793968,5.2822075,8.319851,0.007330383,0.0033597588,-0.0012217305,-14.367,-7.91,-27.92,1
0.4914099,5.3025584,8.257003,0.029932396,-0.0030543262,-0.017104227,-14.367,-8.216,-27.92,1
0.52253455,5.2822075,8.239645,0.008246681,0.007330383,0.004276057,-14.367,-8.216,-27.92,1
0.52852005,5.263054,8.331821,0.015882496,0.010079277,-0.00061086525,-14.367,-8.216,-27.92,1
0.47046062,5.319318,8.248624,0.035430185,0.005497787,0.00061086525,-14.367,-8.216,-27.92,1
0.5033809,5.288193,8.146272,0.025961773,0.004276057,-0.008552114,-14.367,-8.216,-27.92,1
0.4866215,5.2840033,8.333617,-0.0018325958,0.019242255,-0.011301007,-14.367,-8.216,-27.92,1
0.5734113,5.273828,8.189965,0.0421497,0.0061086523,-0.005192355,-14.677,-8.216,-27.92,1
0.51235914,5.361216,8.233061,0.026267206,0.00061086525,-0.015271631,-14.677,-8.216,-27.92,1
0.5374983,5.301361,8.215703,0.021991149,0.011911872,0.011301007,-14.677,-7.891,-27.92,1
0.5129577,5.3324857,8.263587,0.023823744,0.00030543262,-0.007941248,-14.677,-7.891,-27.619,1
0.5554548,5.283405,8.256405,0.015577064,0.016493361,-0.0070249503,-14.677,-7.891,-27.619,1
0.5069722,5.313332,8.2037325,0.02107485,0.0036651916,-0.015271631,-14.677,-8.203,-27.946,1
0.4950012,5.321113,8.213309,0.0018325958,0.007941248,-0.013744468,-14.677,-8.203,-27.946,1
0.5883751,5.2409077,8.244433,0.0021380284,-0.0012217305,0.0061086523,-14.372,-8.203,-27.946,1
0.5943606,5.2804117,8.264784,-0.0030543262,-0.0021380284,-0.01863139,-14.372,-7.896,-27.598,1
0.51714754,5.294777,8.25401,0.0106901415,-0.0030543262,-0.008552114,-14.372,-7.896,-27.598,1
0.4973954,5.3043537,8.134899,-0.014660766,0.0027488936,-0.021380283,-14.372,-8.204,-27.92,1
0.43514615,5.2558713,8.408437,-0.0125227375,0.01038471,-0.03481932,-14.372,-8.204,-27.92,1
0.51475334,5.3049526,8.177396,0.03145956,0.00030543262,-0.0143553335,-14.372,-8.204,-27.92,1
0.47345337,5.2684407,8.25401,0.013133603,0.01038471,-0.0015271631,-14.372,-8.204,-27.92,1
0.5530606,5.263054,8.296508,0.015882496,0.00580322,0.008857546,-14.372,-8.204,-27.92,1
0.56084174,5.261258,8.286931,0.019242255,0.008857546,-0.008552114,-14.372,-7.856,-27.92,1
0.50397944,5.2726307,8.263587,0.01282817,0.009468411,-0.018020526,-14.372,-7.553,-27.597,1
0.45370123,5.2798133,8.192958,0.02687807,0.009468411,-0.03481932,-14.372,-7.553,-27.293,1
0.42796355,5.2983685,8.303091,0.021685716,0.016493361,-0.02107485,-14.372,-7.553,-27.619,1
0.56443304,5.2558713,8.2354555,0.040317107,0.016798794,0.0015271631,-14.372,-7.878,-27.926,1
0.55365914,5.2822075,8.268375,0.022907447,0.007330383,-0.01160644,-14.372,-7.878,-27.926,1
0.53570265,5.2265425,8.294113,0.01282817,0.005497787,0.0067195175,-14.372,-7.878,-27.926,1
0.52852005,5.2624555,8.261791,0.01863139,-0.0018325958,-0.009468411,-14.372,-7.878,-27.926,1
0.52732295,5.2756233,8.246828,0.016798794,0.006414085,-0.0021380284,-14.372,-7.878,-27.926,1
0.5410896,5.241506,8.322844,0.011301007,0.0027488936,-0.0036651916,-14.372,-7.878,-27.926,1
0.5129577,5.257667,8.267777,0.019242255,0.002443461,-0.011301007,-14.372,-7.878,-27.926,1
0.5129577,5.21936,8.277952,0.01863139,0.005497787,-0.009468411,-14.372,-7.878,-27.926,1
0.44891283,5.237316,8.297705,0.02076942,-0.00030543262,-0.022907447,-14.372,-7.878,-27.626,1
0.521936,5.2145715,8.316259,-0.0021380284,-0.005497787,-0.004276057,-14.372,-7.572,-27.626,1
0.52073884,5.258864,8.273763,0.0067195175,0.006414085,-0.016493361,-14.372,-7.572,-27.626,1
0.45489833,5.2540755,8.313267,0.0070249503,0.0021380284,-0.017715093,-14.372,-7.572,-27.626,1
0.533907,5.257068,8.218696,0.024129177,0.0027488936,-0.004886922,-14.372,-7.879,-27.626,1
0.48243165,5.2121773,8.338406,0.0070249503,0.014049901,-0.0030543262,-14.372,-7.879,-27.987,1
0.53929394,5.249287,8.264186,0.019547688,-0.00061086525,-0.005497787,-14.372,-7.879,-27.987,1
0.50517654,5.1906295,8.311471,0.007941248,0.014049901,-0.0070249503,-14.372,-7.879,-27.987,1
0.5279215,5.2008047,8.32045,0.016798794,0.006414085,-0.0076358155,-14.372,-7.879,-27.641,1
0.61650693,5.218761,8.230667,0.03023783,0.0036651916,-0.0030543262,-14.372,-7.574,-27.641,1
0.48841715,5.2049947,8.3868885,-0.007941248,0.009773844,-0.0067195175,-14.372,-7.574,-27.641,1
0.5446809,5.173271,8.318654,0.013744468,0.01038471,-0.0070249503,-14.372,-7.574,-27.641,1
0.50996494,5.237316,8.289924,0.0009162979,0.008552114,-0.01863139,-14.372,-7.574,-27.641,1
0.4333505,5.2085857,8.370728,0.0076358155,0.0061086523,-0.007941248,-14.372,-7.89,-27.641,1
0.46806642,5.1930237,8.286332,0.008552114,0.004581489,-0.0125227375,-14.372,-7.89,-27.951,1
0.4818331,5.2205567,8.300697,0.022296581,0.0012217305,-0.004276057,-14.372,-7.89,-27.951,1
0.56323594,5.197812,8.25401,0.015882496,0.0036651916,0.0027488936,-14.372,-7.89,-27.951,1
0.45789108,5.2127757,8.330625,0.016187929,0.01038471,-0.027794369,-14.372,-7.89,-27.951,1
0.43514615,5.2498856,8.279748,0.02687807,0.0143553335,-0.01038471,-14.372,-7.89,-27.951,1
0.49799395,5.2367177,8.281544,0.01160644,0.0036651916,0.015577064,-14.372,-7.89,-27.951,1
0.6171055,5.187038,8.308478,0.017104227,0.009773844,0.048258353,-14.372,-7.89,-27.951,1
0.5710171,5.1996074,8.2833395,0.015882496,0.01740966,0.034208454,-14.372,-7.588,-27.645,1
0.5410896,5.1942205,8.408437,-0.0018325958,0.0036651916,0.004581489,-14.709,-7.588,-27.645,1
0.57520694,5.177461,8.304289,0.040927973,0.0018325958,0.007330383,-15.017,-7.588,-28.009,1
0.5770026,5.197812,8.262989,0.014049901,-0.0036651916,-0.014049901,-15.345,-7.588,-28.318,1
0.5129577,5.2241483,8.30369,0.03145956,-0.0012217305,0.005497787,-15.69,-7.588,-28.318,1
0.6853402,5.1966147,8.259995,0.04795292,0.0125227375,0.02443461,-15.69,-7.588,-28.318,1
0.66498953,5.157709,8.356961,0.03940081,0.011911872,-0.02076942,-15.69,-7.284,-28.318,1
0.5105635,5.2798133,8.234259,0.038179077,0.0027488936,-0.050396383,-15.69,-6.97,-27.986,1
0.47465047,5.2852,8.1959505,0.036957346,0.005192355,-0.032986723,-15.382,-7.308,-27.986,1
0.5518635,5.2037973,8.392276,0.0009162979,0.011301007,-0.012217305,-15.083,-7.627,-27.986,1
0.62608373,5.2780175,8.185177,0.04642576,-0.004581489,-0.039095376,-15.083,-7.627,-27.986,1
0.48482585,5.291186,8.201937,0.016493361,0.014966198,-0.03023783,-14.779,-7.627,-27.986,1
0.533907,5.291186,8.195353,0.026267206,0.004276057,0.00061086525,-14.779,-7.627,-27.986,1
0.47105917,5.2768207,8.274361,0.021685716,0.011911872,-0.0030543262,-15.132,-7.627,-28.289,1
0.41180268,5.3624134,8.2169,0.022602014,0.016493361,0.026572637,-15.464,-7.94,-28.289,1
0.23283611,5.6221843,8.650849,0.00061086525,0.1020145,0.16584991,-15.464,-7.94,-27.98,1
0.5895722,5.93762,9.203311,0.22266038,0.25137106,0.31887165,-15.119,-7.623,-27.671,1
1.1492168,6.126762,8.287529,0.7110472,0.7809912,0.24007004,-14.358,-7.623,-27.671,1
0.49559975,5.7323174,8.216302,0.26053402,0.32284227,-0.35888332,-13.346,-8.311,-27.987,1
0.4866215,5.7640405,7.4842744,0.8723156,0.17012598,-0.4841107,-12.196,-9.014,-27.987,1
-0.5781997,5.8119245,5.076905,0.42271876,-0.36835176,-0.37782016,-11.499,-11.003,-27.987,1
-1.4616601,6.1243677,5.9226565,-0.21013765,-0.2733622,-0.1151481,-11.148,-12.274,-27.305,1
-1.1653777,5.081693,7.9445596,-0.9972375,-0.8875872,0.33200526,-11.537,-12.619,-27.305,1
0.63206923,6.7265096,8.279149,0.11881329,-0.07452556,0.40744713,-12.977,-11.427,-27.305,1
0.10474633,6.880337,7.809886,-0.1459968,0.49357912,0.183565,-13.719,-10.401,-26.971,1
0.16101007,5.722142,8.93576,-0.30573806,-0.07574729,0.02565634,-13.719,-9.449,-26.971,1
-0.5069722,5.9262476,7.9068513,0.2959642,0.04153884,0.054061573,-13.719,-9.449,-27.314,1
0.961272,5.6898203,7.5387425,0.24923302,0.0842994,0.44318274,-14.028,-9.449,-27.314,1
1.6771383,5.3624134,7.869741,-0.037873644,0.06780604,0.32375857,-14.028,-9.449,-27.314,1
1.6226702,5.997475,7.399879,0.18753563,-0.011301007,-0.04917465,-14.028,-9.449,-26.994,1
0.85532856,6.22672,7.66384,-0.03940081,0.05222898,-0.33933565,-14.028,-9.449,-26.994,1
0.01616086,6.1758432,7.869741,-0.06719518,-0.1554652,-0.43066,-14.028,-9.449,-26.994,1
0.11971009,6.2626333,7.740454,0.20250183,-0.03390302,-0.15515977,-14.028,-9.771,-26.994,1
0.15322891,6.4589577,7.0700774,0.23273966,0.012217305,-0.111177474,-13.713,-10.079,-26.994,1
0.2789245,6.447585,7.1143703,0.023823744,0.022907447,0.030543262,-13.713,-10.427,-26.644,1
0.12928689,6.2099605,7.4848733,-0.021380283,0.0729984,0.027488936,-13.713,-10.769,-26.644,1
0.13826515,6.2404866,7.565677,-0.21471913,0.094989546,0.2574797,-13.713,-10.769,-26.644,1
0.40641573,6.177639,7.960122,-0.5180137,0.35002577,0.904386,-13.713,-10.116,-26.644,1
0.8607155,5.704784,7.8906903,-0.24098633,0.44104472,1.0503827,-13.713,-8.979,-27.792,1
1.3180081,5.322909,8.200739,-0.34025195,-0.18692477,0.33108896,-13.713,-5.465,-28.428,1
1.453879,4.9158945,8.775947,0.0015271631,-0.30757064,-0.06872234,-14.059,-5.16,-28.77,1
1.2659341,5.6006365,7.9026613,0.5522222,0.025350908,-0.172264,-14.747,-4.411,-28.77,1
1.0043676,5.899313,7.73806,0.3491095,-0.07238753,-0.24037547,-15.06,-5.297,-28.77,1
1.2144588,6.1399302,7.462128,0.35124752,-0.30115658,-0.2657264,-15.06,-6.813,-28.466,1
1.2300211,6.331466,7.5070195,0.23945917,-0.24098633,-0.24190263,-15.06,-8.285,-27.827,1
1.0654198,6.461352,7.2125325,0.28527406,0.06169739,-0.03023783,-15.06,-9.025,-27.479,1
1.0815806,6.531981,7.0024414,0.19730948,-0.048258353,-0.15882497,-15.06,-9.678,-26.853,1
0.8583213,6.7534447,7.0006456,0.004886922,-0.089186326,-0.22388211,-15.06,-10.026,-26.197,1
1.1192893,6.6564794,7.307702,0.028710667,-0.20708331,-0.16187929,-15.06,-10.353,-25.886,1
1.1695676,6.7761893,6.8486137,0.04550946,-0.113926366,0.06811147,-15.06,-10.655,-25.886,1
1.1731589,6.4978633,7.2382703,-0.03145956,0.22449298,0.0720821,-15.385,-10.655,-25.579,1
0.94810385,6.6630635,7.3071036,-0.029932396,0.08124508,-0.0571159,-15.998,-10.655,-25.579,1
0.8948329,6.6762314,7.120356,0.059253927,0.008857546,-0.00030543262,-15.998,-10.337,-25.892,1
1.1145009,6.5523314,7.2029557,-0.00580322,0.040317107,0.02107485,-15.998,-10.337,-25.892,1
1.0199299,6.55293,7.101202,-0.0027488936,0.015577064,-0.01282817,-15.998,-10.337,-25.892,1
0.9032126,6.658275,7.0221934,-0.057726767,-0.048563786,-0.05589417,-15.998,-10.337,-26.266,1
0.9648633,6.5026517,7.4082584,-0.08124508,-0.002443461,-0.004886922,-15.998,-10.337,-26.266,1
1.0576386,6.4882865,7.347805,-0.0143553335,0.0015271631,0.009162978,-15.998,-10.026,-26.266,1
1.0354922,6.4589577,7.277775,-0.0106901415,-0.0143553335,-0.013744468,-15.998,-10.026,-26.266,1
1.0426749,6.3793507,7.4830775,-0.092240654,-0.065973446,-0.09773844,-15.998,-10.026,-26.266,1
0.87448215,6.5547256,7.4082584,0.06078109,0.05467244,0.040927973,-15.998,-9.689,-26.266,1
0.9600749,6.637326,7.7009497,-0.0143553335,0.20219639,0.3182608,-15.998,-9.689,-26.266,1
1.1767502,6.7187285,7.639898,-0.45448375,0.44593164,0.8530733,-15.69,-9.326,-26.631,1
1.1719618,5.9124813,8.406641,-0.9450085,0.7147123,0.9211848,-15.69,-5.574,-27.323,1
1.2503718,4.88477,9.911995,-1.1774428,-0.11484267,0.44501534,-15.69,-2.108,-28.489,1
0.8858546,3.8444893,9.687539,0.0290161,0.19700404,0.829555,-15.69,0.096,-29.692,1
1.9237411,3.9683893,8.029554,0.35613444,-0.18967366,0.66767573,-15.69,0.447,-30.412,1
3.3207579,3.774459,7.3926964,0.20677789,-0.34666604,0.42394048,-15.994,1.094,-30.412,1
3.9199066,4.935647,5.810129,0.13744467,-0.06994407,-0.08460484,-16.329,1.094,-30.059,1
1.9985598,4.63278,7.707534,-0.26328292,0.18234327,-0.41599923,-16.329,1.396,-29.71,1
1.6639702,4.8602295,8.957307,-0.09010262,0.2764165,-0.0580322,-16.329,1.71,-29.71,1
1.8070238,4.5663414,9.021951,0.72418076,0.17470746,0.8176431,-16.001,1.71,-29.71,1
1.4652514,4.7602715,8.861539,0.02321288,-0.023518313,0.02687807,-15.663,1.71,-30.068,1
2.3223755,5.075109,8.614936,0.12003502,-0.43188173,0.2134974,-15.354,1.403,-30.068,1
4.0372224,4.959589,7.033566,0.044593163,-0.036651913,0.17867808,-15.354,1.097,-30.371,1
2.3930047,4.414908,8.31207,-0.09590584,0.16401732,-0.005192355,-15.686,1.097,-30.371,1
2.6126726,4.8422728,7.9876556,-0.06078109,-0.071776666,-0.0852157,-15.686,1.097,-30.371,1
2.355296,4.425083,9.2787285,-0.27672195,-0.0125227375,-0.1731803,-15.686,1.426,-30.371,1
2.8987796,4.4687777,8.197148,0.25411993,-0.042455133,0.14844026,-15.686,2.14,-30.371,1
2.5761611,4.390966,8.441956,-0.116675265,-0.028710667,-0.20525073,-15.686,2.14,-30.059,1
1.9746178,4.3023806,8.702923,-0.05955936,0.041233405,-0.2574797,-15.686,2.14,-30.059,1
2.961029,4.6680946,7.863157,0.14080444,0.043676864,-0.08399397,-15.686,1.791,-30.059,1
1.5586253,4.2042184,9.180567,0.12156218,0.3295618,-0.22143865,-15.686,1.467,-30.366,1
1.7944542,4.7518916,8.100183,0.48747048,-0.0027488936,0.074830994,-14.999,1.127,-30.366,1
2.1577742,5.0374002,7.0365586,0.625526,-0.13958271,0.14966199,-14.678,0.428,-30.366,1
3.5332432,4.8859673,6.7306995,0.39675698,-0.5516113,-0.033292156,-14.678,-0.761,-30.043,1
2.9281087,6.2662244,7.2364745,-0.17256944,-0.63071835,-0.93034774,-15.795,-2.105,-29.73,1
1.4772224,5.973533,9.000402,-0.27397305,-1.1884383,-1.4080443,-16.822,-3.343,-28.521,1
1.9135658,6.691195,7.719505,0.52015173,-1.2211196,-0.75686204,-18.191,-5.897,-25.729,1
2.9011738,6.779182,6.827066,0.30115658,-0.28588495,-0.06994407,-19.34,-7.183,-24.908,1
2.926313,6.5349736,6.71394,0.10567969,-0.07941248,-0.024740042,-20.495,-8.013,-23.887,1
3.4153287,6.483498,6.841431,-0.07941248,0.26511553,0.10995574,-20.796,-8.74,-23.554,1
2.8514943,6.223129,7.1107793,-0.17470746,0.36163223,-0.06719518,-20.796,-8.74,-23.554,1
2.4833858,6.488885,7.342418,-0.0711658,0.020158553,-0.09865474,-20.484,-8.74,-23.893,1
2.415151,6.7773867,6.7564373,0.008857546,-0.03726278,-0.054061573,-19.827,-8.74,-23.893,1
2.5192988,6.3739634,7.016208,0.03848451,0.24617869,0.15699236,-19.827,-8.396,-23.893,1
2.6970682,6.2183404,6.951565,0.00580322,0.42332962,0.30940324,-19.827,-8.068,-24.203,1
2.8209682,5.990891,7.1784153,-0.2452624,-0.006414085,0.09315695,-19.512,-8.068,-24.856,1
2.8095956,5.681441,7.2406645,0.077579886,0.16035213,-0.14294247,-19.197,-7.376,-25.189,1
2.5312698,6.136339,7.57286,-0.16310102,-0.31703907,-0.16493362,-19.197,-7.049,-25.189,1
2.078167,6.3584013,7.6123643,-0.04153884,-0.18478674,0.014966198,-19.197,-6.707,-25.189,1
2.6797101,6.021417,7.499837,0.011301007,-0.4801401,0.14385876,-19.197,-6.707,-25.189,1
3.328539,5.876568,7.5189905,0.24129178,-0.14813483,0.34238997,-19.927,-6.707,-24.867,1
3.318962,6.3141084,6.463746,0.4266894,-0.0693332,0.20830505,-20.542,-6.707,-24.229,1
3.7714663,6.1387334,6.42903,0.092240654,-0.03023783,0.16523905,-20.852,-6.707,-23.921,1
3.8576574,5.9962783,6.8599863,-0.061391957,0.15882497,0.11881329,-20.852,-7.017,-23.571,1
3.3369186,6.0561333,7.091027,-0.03145956,0.2180789,-0.013133603,-20.852,-6.665,-23.268,1
3.2225955,6.030994,7.517793,-0.0888809,0.06291912,-0.017715093,-20.852,-6.309,-23.268,1
3.3075895,6.2524576,6.921637,0.2593123,0.07513642,0.022907447,-20.852,-6.309,-23.593,1
3.4703953,6.2991447,6.8599863,0.20830505,0.04550946,0.026267206,-20.552,-6.309,-23.593,1
3.2477345,6.473323,6.5325794,0.23518312,0.09468412,-0.01863139,-20.552,-6.678,-23.907,1
3.1495724,6.4152637,6.525397,0.029321533,-0.05681047,-0.09132435,-20.552,-7.325,-23.907,1
3.1800983,6.432023,6.7767878,-0.03176499,-0.04917465,-0.058337633,-20.552,-7.325,-23.907,1
3.2112231,6.397307,6.7731967,-0.021380283,-0.015577064,-0.08032878,-20.552,-7.325,-23.597,1
3.17531,6.495469,6.7624226,-0.005192355,-0.048563786,-0.09162979,-20.552,-7.325,-23.597,1
3.0921116,6.5098343,6.76781,-0.003970624,-0.04184427,-0.07147124,-20.552,-7.647,-23.597,1
3.1190462,6.4685345,6.757634,-0.019547688,-0.029321533,-0.021991149,-20.552,-7.647,-23.597,1
3.2477345,6.338649,6.8162923,-0.004886922,-0.019242255,0.024740042,-20.552,-7.647,-23.597,1
3.389591,6.338649,6.7929487,0.01282817,-0.043676864,-0.009468411,-20.552,-7.647,-23.597,1
3.3249476,6.420052,6.7719994,0.017104227,-0.035430185,-0.04337143,-20.552,-7.647,-23.597,1
3.229778,6.4421983,6.766014,0.046120327,-0.022602014,-0.053145275,-20.552,-7.647,-23.295,1
3.1890767,6.4924765,6.6492968,0.043982297,0.01282817,-0.019242255,-20.552,-7.647,-23.295,1
3.1717186,6.464943,6.6624646,0.027488936,0.011301007,-0.021685716,-20.552,-7.647,-23.295,1
3.288436,6.4481835,6.7444663,-0.00061086525,0.0030543262,0.005192355,-20.552,-7.647,-23.295,1
3.304597,6.3859344,6.7265096,-0.008857546,0.01282817,-0.008552114,-20.552,-7.647,-23.295,1
3.241749,6.3889275,6.7450647,-0.007941248,0.010995574,-0.041233405,-20.552,-7.647,-23.295,1
3.2243912,6.447585,6.7450647,0.009162978,0.004886922,-0.030543262,-20.552,-7.647,-23.295,1
3.1483753,6.3925185,6.839636,-0.013439035,0.008246681,-0.015882496,-20.552,-7.647,-23.62,1
3.2501287,6.3967085,6.7163343,0.020158553,0.0018325958,-0.0030543262,-20.552,-7.647,-23.62,1
3.3075895,6.3739634,6.9048777,-0.0027488936,-0.0036651916,-0.003970624,-20.552,-7.647,-23.62,1
3.1824925,6.420052,6.749853,0.013744468,-0.013744468,-0.04062254,-20.552,-7.275,-22.947,1
3.2016463,6.364985,6.761824,0.008246681,-0.0015271631,0.00030543262,-20.552,-6.936,-22.615,1
3.235165,6.3883286,6.7642183,0.011301007,0.01282817,-0.010995574,-20.552,-6.936,-22.93,1
3.1932666,6.3967085,6.8132997,0.01282817,-0.0030543262,-0.017715093,-20.552,-7.273,-23.236,1
3.163339,6.3697734,6.8809357,0.015271631,0.00061086525,-0.023823744,-20.552,-7.592,-23.236,1
3.1729157,6.381146,6.7067575,0.028405234,-0.005192355,-0.0290161,-20.552,-7.592,-23.236,1
3.2429461,6.3739634,6.751649,0.006414085,0.004276057,-0.0030543262,-20.552,-7.592,-23.236,1
3.2010477,6.361394,6.843227,0.0033597588,0.0067195175,-0.003970624,-20.552,-7.592,-23.236,1
3.2321723,6.3524156,6.8581905,0.01740966,0.013133603,-0.011911872,-20.552,-7.592,-23.236,1
3.1531637,6.3901243,6.7318964,0.023823744,-0.0015271631,-0.02321288,-20.552,-7.592,-23.236,1
3.1381998,6.371569,6.7845693,0.0033597588,0.02321288,-0.011911872,-20.552,-7.592,-23.236,1
3.2429461,6.3470287,6.843227,0.0009162979,0.014966198,0.0015271631,-20.552,-7.592,-23.236,1
3.2561142,6.3823433,6.892308,0.00580322,0.004581489,-0.00580322,-20.552,-7.592,-23.236,1
3.2237926,6.39192,6.7642183,0.032070424,-0.008857546,-0.009773844,-20.552,-7.29,-22.929,1
3.2190042,6.3727665,6.861782,-0.0070249503,0.018020526,-0.01038471,-20.552,-7.29,-22.929,1
3.2034419,6.411672,6.8462195,0.019547688,0.00580322,-0.011301007,-20.552,-7.629,-22.929,1
3.2435448,6.367379,6.7965403,0.007330383,0.015577064,-0.0036651916,-20.552,-7.629,-23.262,1
3.1884782,6.3739634,6.8210807,0.00030543262,0.009162978,-0.021380283,-20.552,-7.629,-23.262,1
3.1651347,6.435614,6.818088,0.029321533,0.008552114,-0.008246681,-20.552,-7.629,-23.262,1
3.1771057,6.3781533,6.8492126,0.024740042,0.0106901415,-0.00030543262,-20.552,-7.629,-23.262,1
3.2010477,6.344036,6.8318543,0.032986723,0.012217305,-0.014660766,-20.552,-7.313,-23.262,1
3.139397,6.3751607,6.815095,0.02107485,0.008246681,-0.03176499,-20.552,-7.313,-23.262,1
3.1118636,6.4002995,6.8109055,0.03481932,0.009773844,-0.018936822,-20.552,-7.313,-23.262,1
3.164536,6.4326215,6.7983356,0.018936822,0.010995574,-0.00580322,-20.552,-7.624,-23.262,1
3.1519666,6.38354,6.851008,0.022296581,0.017715093,-0.0067195175,-20.552,-7.624,-23.262,1
3.1441853,6.427833,6.7719994,0.045814894,-0.0009162979,-0.013133603,-20.552,-7.624,-23.262,1
3.1376014,6.4188547,6.700772,0.040011674,0.005192355,-0.0009162979,-20.552,-7.624,-23.262,1
3.1603463,6.4044895,6.789956,0.02076942,0.00030543262,-0.0033597588,-20.552,-7.949,-23.262,1
3.1663318,6.415862,6.7241154,0.013133603,-0.016798794,-0.020158553,-20.552,-7.949,-23.262,1
3.1376014,6.4164605,6.8246717,-0.01985312,0.0061086523,-0.020158553,-20.552,-7.949,-23.262,1
3.1022868,6.405088,6.8025255,0.014966198,0.0027488936,-0.01282817,-20.552,-7.949,-23.262,1
3.1914709,6.4062853,6.7426705,0.021991149,0.009468411,-0.00061086525,-20.552,-7.949,-23.574,1
3.1280246,6.4242415,6.7654157,0.018020526,-0.0015271631,-0.012217305,-20.552,-7.949,-23.252,1
3.0538042,6.407482,6.8665705,-0.0027488936,0.009773844,-0.026267206,-20.552,-7.644,-23.252,1
3.1465795,6.4242415,6.6864066,0.036651913,-0.0061086523,-0.0015271631,-20.552,-7.644,-23.252,1
3.1908724,6.4188547,6.692991,0.018325957,0.0033597588,0.00030543262,-20.552,-7.975,-23.585,1
3.2010477,6.3739634,6.8504095,-0.0030543262,0.0030543262,0.005192355,-20.552,-7.975,-23.585,1
3.1423898,6.3865333,6.727108,0.017715093,-0.007941248,-0.004886922,-20.552,-7.975,-23.585,1
3.1142578,6.4026937,6.783372,0.002443461,0.014966198,0.0015271631,-20.552,-7.975,-23.272,1
3.1872811,6.3709707,6.8198833,0.003970624,0.011301007,0.005192355,-20.552,-7.975,-23.272,1
3.1836896,6.3769565,6.823475,0.0061086523,0.0070249503,-0.0021380284,-20.552,-7.975,-23.602,1
3.1800983,6.3793507,6.7851677,0.03023783,0.0070249503,-0.0012217305,-20.552,-7.975,-23.602,1
3.1932666,6.3865333,6.7929487,0.01863139,-0.004886922,0.0018325958,-20.552,-7.975,-23.602,1
3.140594,6.384139,6.739678,0.026572637,0.0076358155,-0.0106901415,-20.552,-7.975,-23.602,1
3.2028434,6.3601966,6.8599863,0.011301007,0.0076358155,-0.008857546,-20.552,-7.975,-23.602,1
3.1896753,6.3566055,6.8528037,0.01160644,0.00030543262,-0.010079277,-20.552,-7.975,-23.602,1
3.2064347,6.351817,6.797737,0.019242255,0.0076358155,-0.019547688,-20.552,-7.975,-23.602,1
3.141791,6.364985,6.7827735,0.017104227,0.00061086525,-0.028710667,-20.552,-7.975,-23.602,1
3.2172086,6.353014,6.8306575,-0.004581489,0.005497787,-0.009162978,-20.552,-7.975,-23.602,1
3.210026,6.3524156,6.8869214,-0.0021380284,0.0015271631,-0.010079277,-20.552,-7.975,-23.602,1
3.1387985,6.3284736,6.9012866,-0.0030543262,-0.002443461,-0.015882496,-20.552,-7.975,-23.602,1
3.1824925,6.3392477,6.7486563,0.004886922,0.002443461,-0.02076942,-20.552,-7.975,-23.295,1
3.1142578,6.2865753,7.013814,-0.029932396,0.022602014,-0.023518313,-20.552,-7.658,-23.295,1
3.127426,6.3230867,6.9599442,0.013744468,0.0076358155,-0.008246681,-20.552,-7.658,-23.295,1
3.169923,6.342839,6.8049197,0.032375857,-0.0012217305,-0.007330383,-20.552,-7.658,-23.295,1
3.1441853,6.326678,6.9383965,0.014049901,0.010995574,-0.01038471,-20.552,-7.658,-23.295,1
3.1501708,6.296152,6.89171,0.025350908,-0.00061086525,-0.015577064,-20.552,-7.658,-23.295,1
3.103484,6.30932,6.823475,0.020463986,0.0070249503,-0.010079277,-20.552,-7.658,-23.295,1
3.151368,6.2901664,6.9647326,0.0021380284,0.0076358155,-0.002443461,-20.552,-7.345,-23.295,1
3.139397,6.3542113,6.8569937,0.010995574,0.01160644,-0.009162978,-20.552,-7.345,-23.295,1
3.1531637,6.2985463,6.880337,-0.03940081,-0.023518313,-0.023823744,-20.552,-7.345,-23.295,1
3.1669302,6.2380924,6.992266,-0.0143553335,0.0012217305,-0.0018325958,-20.552,-7.345,-22.953,1
3.164536,6.293159,6.9461775,0.02321288,0.006414085,-0.027183503,-20.552,-7.345,-22.953,1
3.181894,6.30932,6.8905125,0.02565634,0.00061086525,-0.009468411,-20.552,-7.649,-23.619,1
3.1800983,6.2632318,6.9988503,0.011911872,0.006414085,-0.009468411,-20.552,-7.649,-23.619,1
3.2034419,6.2865753,6.915652,0.030543262,0.004581489,-0.018936822,-20.552,-7.649,-23.619,1
3.1262288,6.2901664,6.8330517,0.040927973,0.010079277,-0.013744468,-20.552,-7.649,-23.619,1
3.1471782,6.247071,6.919243,0.008246681,0.015271631,-0.011301007,-20.552,-7.649,-23.619,1
3.1399956,6.277597,6.8773446,0.02107485,0.008552114,-0.023518313,-20.552,-7.649,-23.619,1
3.1292217,6.275801,6.965331,0.0030543262,0.013133603,-0.02443461,-20.552,-7.649,-23.312,1
3.1268275,6.3368535,6.8905125,0.009773844,-0.0033597588,-0.015577064,-20.552,-7.649,-23.638,1
3.0508115,6.253655,6.96593,0.009162978,0.004886922,-0.005497787,-20.552,-7.649,-23.638,1
3.2375593,6.2512608,6.9024835,0.03573562,0.0143553335,0.010995574,-20.552,-7.649,-23.638,1
3.1735144,6.332065,6.992266,0.01863139,0.003970624,-0.03023783,-20.552,-7.328,-23.306,1
3.1052797,6.3021374,6.927024,0.032986723,-0.004276057,-0.03145956,-20.552,-7.328,-23.306,1
3.1621418,6.3224883,6.8468184,0.043982297,0.00580322,-0.024129177,-20.552,-7.638,-23.306,1
3.1705215,6.339846,6.908469,0.038179077,0.00580322,-0.045814894,-20.552,-7.638,-23.306,1
3.1016884,6.3500214,6.8462195,0.03726278,-0.0027488936,-0.025350908,-20.552,-7.638,-22.998,1
3.0310593,6.3907228,6.823475,0.038179077,0.0125227375,-0.026572637,-20.552,-7.638,-22.998,1
3.0532057,6.3751607,6.853402,0.02687807,0.016187929,-0.010079277,-20.552,-7.951,-22.998,1
3.127426,6.3823433,6.8426285,0.034208454,0.0030543262,0.002443461,-20.552,-7.951,-23.345,1
3.1082723,6.3661823,6.8144965,0.0290161,0.0018325958,-0.004276057,-20.552,-7.951,-23.345,1
3.098097,6.395511,6.8839283,0.005192355,0.008857546,-0.007330383,-20.552,-8.251,-23.345,1
3.0986955,6.384139,6.8162923,0.03359759,0.008552114,0.004276057,-20.552,-8.251,-23.345,1
3.1723173,6.347627,6.865972,0.029932396,0.013744468,0.0030543262,-20.552,-8.251,-23.345,1
3.083732,6.3566055,6.839636,0.035430185,0.00030543262,-0.0143553335,-20.552,-7.923,-23.345,1
3.0304608,6.3901243,6.8767457,0.010995574,0.011301007,-0.030543262,-20.552,-7.923,-22.998,1
3.140594,6.3667808,6.8228765,0.016187929,0.01863139,0.0067195175,-20.552,-7.923,-22.998,1
3.0801406,6.3823433,6.8719573,0.0009162979,0.015271631,-0.01740966,-20.552,-7.923,-23.312,1
3.040636,6.3883286,6.749853,0.032070424,0.0033597588,-0.014660766,-20.552,-7.923,-23.312,1
3.0699651,6.367379,6.8839283,0.0076358155,0.011301007,-0.009162978,-20.552,-7.923,-23.312,1
3.1304188,6.379949,6.817489,0.009162978,0.0012217305,-0.0030543262,-20.552,-8.235,-23.312,1
3.1226375,6.344036,6.931214,-0.0070249503,0.0067195175,-0.00580322,-20.552,-8.235,-23.312,1
3.0364463,6.3751607,6.809708,0.02076942,-0.003970624,-0.01282817,-20.552,-7.907,-22.976,1
3.098097,6.3350577,6.8767457,-0.008552114,0.0036651916,-0.0076358155,-20.552,-7.907,-22.976,1
3.09271,6.3392477,6.9048777,0.005192355,0.012217305,-0.008857546,-20.552,-7.907,-22.976,1
3.0945058,6.2883706,6.915053,0.01160644,0.019242255,0.005497787,-20.552,-7.907,-23.323,1
3.1238346,6.347627,6.8348475,0.027183503,0.009468411,-0.0015271631,-20.552,-7.907,-23.323,1
3.0538042,6.3619924,6.854001,0.0076358155,0.0036651916,-0.014966198,-20.552,-7.907,-23.323,1
3.0681696,6.3302693,6.908469,0.009162978,0.007941248,-0.01038471,-20.552,-7.907,-23.323,1
3.071761,6.318897,6.9078703,0.011301007,0.007330383,-0.008552114,-20.552,-7.907,-23.323,1
3.0879216,6.3248825,6.9252286,0.01863139,0.011301007,-0.0027488936,-20.552,-7.907,-23.323,1
3.0376434,6.314707,6.9306154,0.013744468,0.014966198,-0.010995574,-20.552,-7.907,-23.323,1
3.0388405,6.3272767,6.9587474,0.03176499,0.009773844,-0.009162978,-20.552,-7.907,-23.628,1
3.0831332,6.302736,6.895301,0.014049901,0.009162978,-0.012217305,-20.552,-7.907,-23.628,1
3.0609868,6.296152,7.0012445,-0.0018325958,0.01038471,-0.0033597588,-20.552,-7.907,-23.628,1
3.1256304,6.2674217,6.9701195,0.01038471,0.013133603,-0.0015271631,-20.552,-7.907,-23.628,1
3.1010897,6.301539,7.005434,0.018936822,0.008246681,-0.009468411,-20.552,-7.907,-23.628,1
3.031658,6.321291,6.937798,0.022602014,0.004886922,-0.01038471,-20.552,-7.907,-23.628,1
3.1435869,6.2650275,6.9485717,0.018936822,0.011911872,-0.016187929,-20.552,-7.907,-23.628,1
3.0418332,6.333262,6.8683662,0.034208454,0.009162978,-0.03756821,-20.552,-7.907,-23.628,1
3.0669725,6.3021374,6.941389,0.009773844,0.00580322,-0.02443461,-20.552,-7.907,-23.628,1
3.056797,6.2686186,7.035362,0.008552114,0.011911872,-0.003970624,-20.552,-7.907,-23.628,1
3.027468,6.284181,6.995259,0.03634648,0.008857546,-0.015882496,-20.552,-7.907,-23.628,1
2.9759927,6.3129115,6.932411,0.034513887,0.0009162979,-0.007941248,-20.552,-7.907,-23.628,1
3.0292637,6.305729,6.919243,0.018325957,0.005497787,0.00061086525,-20.552,-7.907,-23.628,1
3.0083144,6.2871737,6.9545574,0.01282817,0.011911872,0.0030543262,-20.552,-7.907,-23.628,1
3.0442274,6.305729,6.911462,0.02076942,0.0036651916,0.00061086525,-20.552,-7.907,-23.628,1
2.9508536,6.319495,6.943185,0.013744468,0.0018325958,-0.011301007,-20.552,-7.907,-23.298,1
3.0358477,6.284181,7.03596,0.010995574,0.008246681,0.008857546,-20.552,-7.6,-23.298,1
3.072958,6.311714,6.953959,0.03390302,0.005497787,-0.011911872,-20.552,-7.6,-23.298,1
3.0017304,6.2805896,6.857592,0.044898596,0.012217305,-0.020158553,-20.552,-7.6,-23.298,1
2.980781,6.3165026,6.955156,0.012217305,0.017104227,-0.025350908,-20.552,-7.6,-23.298,1
2.9508536,6.3182983,6.995259,0.04734206,0.006414085,-0.02076942,-20.552,-7.902,-23.298,1
3.0232782,6.3344593,6.974908,0.05222898,-0.019547688,0.0125227375,-20.552,-7.902,-23.298,1
3.0238767,6.3589997,6.862979,0.06383542,-0.006414085,0.025045475,-20.552,-7.902,-23.298,1
3.1603463,6.355408,6.7773867,0.03481932,-0.007941248,0.029626964,-20.552,-7.902,-23.298,1
3.0723593,6.38354,6.865972,0.005497787,0.0027488936,-0.015882496,-20.552,-7.902,-23.298,1
2.9921536,6.3488245,7.004237,0.014660766,-0.016187929,-0.028099801,-20.552,-8.203,-23.6,1
3.0137014,6.4326215,6.8773446,0.0711658,-0.048258353,0.0070249503,-20.552,-8.203,-23.6,1
3.247136,6.4685345,6.523601,0.10170906,-0.12186762,0.013744468,-20.552,-8.203,-23.6,1
3.1794999,6.4188547,6.5391636,0.014660766,-0.03359759,-0.01282817,-20.855,-8.203,-23.277,1
3.0621839,6.3350577,7.0904284,-0.06261369,0.03268129,-0.0036651916,-21.189,-8.203,-22.953,1
3.0873232,6.3230867,6.925827,0.012217305,0.019547688,-0.016798794,-21.189,-7.901,-22.953,1
3.1471782,6.361394,6.6241574,0.05681047,0.005497787,-0.022907447,-21.524,-7.901,-22.953,1
3.1124623,6.4086795,6.818088,0.009773844,0.01282817,-0.013744468,-21.524,-7.901,-22.953,1
3.1489737,6.3488245,7.023391,-0.01863139,0.019242255,-0.00061086525,-21.524,-7.588,-22.639,1
3.1022868,6.3392477,6.8144965,0.03848451,0.014660766,-0.015882496,-21.524,-7.588,-22.639,1
2.9873652,6.35062,6.8085113,0.025045475,0.013744468,-0.03573562,-21.524,-7.588,-22.987,1
3.0891187,6.3925185,6.9348054,0.022907447,0.011911872,-0.008857546,-21.524,-7.588,-22.987,1
3.0466216,6.365584,6.825869,0.040927973,0.0018325958,-0.006414085,-21.524,-7.897,-22.987,1
3.244742,6.4098763,6.716933,0.056505036,0.013133603,-0.011911872,-21.524,-7.897,-22.987,1
3.0819361,6.3721676,6.9168487,0.02076942,0.052534413,-0.03756821,-21.524,-7.897,-22.987,1
2.9257145,6.4182563,6.8408327,0.056199603,0.03359759,-0.049785517,-21.524,-7.897,-22.987,1
2.9747956,6.439804,6.7725983,0.0421497,0.011911872,0.0030543262,-21.218,-7.897,-22.682,1
3.1094694,6.443395,6.9186444,0.036957346,0.02076942,0.01985312,-20.904,-7.897,-22.682,1
3.083732,6.3967085,6.8264675,0.050396383,-0.01160644,0.002443461,-20.904,-8.21,-22.682,1
3.0454245,6.517017,6.689998,0.055283304,-0.018020526,-0.043066,-20.904,-8.21,-22.682,1
2.8700492,6.50744,6.6630635,0.047647487,-0.035430185,-0.03848451,-21.255,-8.21,-22.682,1
2.9813797,6.4727244,6.8162923,0.008246681,-0.011911872,0.0015271631,-21.255,-8.21,-22.682,1
3.0454245,6.449381,6.7630215,0.010079277,-0.00580322,0.0033597588,-21.255,-8.21,-22.682,1
3.1064768,6.419453,6.7211227,0.014660766,0.003970624,0.0036651916,-21.255,-8.21,-22.682,1
3.0412347,6.4421983,6.8198833,-0.0033597588,0.015882496,-0.008246681,-21.255,-8.21,-22.682,1
3.0603883,6.4272346,6.853402,-0.0015271631,-0.004276057,0.005497787,-21.582,-8.21,-23.005,1
3.0304608,6.3871317,6.8198833,-0.0012217305,0.0061086523,-0.004581489,-21.582,-8.21,-23.005,1
3.0202854,6.4182563,6.904279,-0.004276057,0.014660766,0.0030543262,-21.582,-8.21,-23.005,1
3.1070752,6.4008985,6.8402343,0.0033597588,0.0030543262,0.004276057,-21.582,-7.55,-22.674,1
3.0963013,6.3847375,6.8767457,0.01740966,-0.0012217305,0.005497787,-21.582,-7.55,-22.674,1
3.09271,6.363788,6.779781,0.047647487,-0.00580322,0.0030543262,-21.582,-7.55,-22.674,1
3.1268275,6.39611,6.867169,0.04795292,-0.0021380284,0.00061086525,-21.582,-7.856,-23.049,1
3.1184478,6.4086795,6.8013287,0.046731193,-0.013744468,-0.008857546,-21.582,-7.856,-23.049,1
3.1453824,6.4416,6.745663,0.064751714,-0.0125227375,-0.011301007,-21.582,-7.856,-23.049,1
3.1214404,6.453571,6.75524,0.03359759,-0.009773844,-0.008246681,-21.582,-7.856,-22.743,1
3.0921116,6.443994,6.7725983,0.038179077,-0.009468411,-0.0125227375,-21.582,-7.856,-22.743,1
3.1262288,6.4631476,6.716933,0.026267206,0.00061086525,-0.004581489,-21.582,-7.856,-22.743,1
3.1118636,6.4936733,6.7642183,0.04337143,-0.004581489,0.00030543262,-21.582,-7.856,-22.38,1
3.193865,6.4421983,6.7743936,0.028710667,-0.009468411,0.014049901,-21.582,-7.856,-22.38,1
3.2387564,6.479308,6.7187285,0.03726278,-0.005192355,-0.01038471,-21.582,-7.856,-22.38,1
3.165733,6.4607534,6.739079,0.02443461,-0.0033597588,-0.024129177,-21.582,-8.207,-22.747,1
3.169923,6.5206084,6.716933,0.056505036,0.027794369,-0.024129177,-21.882,-8.207,-22.747,1
3.0005333,6.5361705,6.621763,0.046731193,0.030543262,-0.04886922,-21.882,-8.207,-22.747,1
3.1441853,6.481104,6.692991,0.014660766,0.02321288,-0.008552114,-21.882,-8.512,-22.428,1
3.1860838,6.443994,6.8025255,-0.013744468,0.012217305,-0.01282817,-21.531,-8.512,-22.428,1
3.0651767,6.4978633,6.7013707,0.01282817,0.0012217305,-0.055588737,-21.215,-8.512,-22.428,1
3.020884,6.51163,6.766014,-0.0015271631,-0.0021380284,-0.049785517,-21.215,-8.512,-22.428,1
3.0627825,6.505046,6.7109475,0.025961773,0.015882496,-0.013439035,-21.215,-8.512,-22.428,1
3.1711202,6.4864907,6.7265096,0.018936822,0.0125227375,0.01282817,-21.215,-8.512,-22.428,1
3.115455,6.5265937,6.7809777,0.022296581,0.015577064,-0.020463986,-21.554,-8.512,-22.428,1
3.0346506,6.4846954,6.737882,0.029626964,0.013744468,-0.03634648,-21.554,-8.512,-22.428,1
3.0262709,6.525397,6.7851677,0.018325957,0.028710667,-0.02443461,-21.252,-8.512,-22.428,1
2.9813797,6.477513,6.806117,0.016187929,0.025961773,-0.0143553335,-20.936,-8.512,-22.428,1
3.0148985,6.4906807,6.7989345,0.023823744,0.012217305,-0.003970624,-20.632,-8.512,-22.737,1
3.019687,6.491279,6.813898,0.02076942,0.009162978,-0.008552114,-20.632,-8.512,-22.737,1
3.0484173,6.50744,6.791752,0.016798794,0.00580322,-0.02076942,-20.632,-8.512,-22.737,1
2.9909565,6.5044475,6.6965823,0.036957346,-0.0030543262,-0.019242255,-20.632,-8.819,-22.737,1
2.980781,6.546346,6.815095,0.01740966,0.0027488936,-0.0018325958,-20.632,-8.819,-23.045,1
3.0520086,6.4936733,6.739079,0.03481932,0.0067195175,0.0021380284,-20.632,-9.127,-23.045,1
3.0538042,6.510433,6.7600284,0.0106901415,0.00061086525,-0.027183503,-20.632,-9.127,-23.045,1
2.8898015,6.5068417,6.7342906,0.022907447,0.012217305,-0.031154128,-20.632,-9.127,-23.045,1
2.9694088,6.521207,6.7306995,0.040317107,0.0076358155,0.0015271631,-20.632,-9.127,-23.045,1
3.0023289,6.528988,6.647501,0.028710667,-0.00061086525,-0.008857546,-20.632,-9.127,-23.045,1
2.9747956,6.5122285,6.6965823,0.010995574,-0.0021380284,-0.007330383,-20.632,-9.127,-23.045,1
2.9604304,6.488885,6.740875,0.0018325958,0.007941248,-0.0070249503,-20.632,-8.816,-23.045,1
3.0538042,6.464943,6.8103065,-0.005497787,0.01160644,-0.0012217305,-20.632,-8.816,-22.709,1
3.0532057,6.4858923,6.8198833,0.00030543262,0.005497787,-0.014049901,-20.632,-8.514,-22.398,1
3.032855,6.509236,6.76362,0.02321288,0.0021380284,-0.011911872,-20.632,-8.85,-22.714,1
3.0376434,6.522404,6.7318964,0.015271631,-0.0018325958,-0.0106901415,-20.632,-8.85,-22.714,1
3.0298622,6.469133,6.831256,-0.0021380284,-0.0015271631,0.007941248,-20.632,-8.85,-22.714,1
3.004723,6.4727244,6.7881603,0.008246681,-0.00580322,-0.013744468,-20.632,-8.85,-22.714,1
2.9131448,6.452972,6.83365,-0.0012217305,0.010079277,-0.01985312,-20.632,-8.517,-22.714,1
2.9520507,6.4146647,6.897695,-0.0009162979,0.016493361,-0.0067195175,-20.632,-8.517,-22.714,1
2.9765913,6.4667387,6.8929067,0.018020526,0.015577064,0.008552114,-20.632,-8.517,-22.714,1
3.0334535,6.4463882,6.7983356,0.03390302,0.0070249503,0.010995574,-20.632,-8.517,-22.714,1
3.063381,6.4224463,6.733692,0.021991149,0.0027488936,-0.0021380284,-20.632,-8.517,-22.714,1
3.0101101,6.3967085,6.915652,-0.0143553335,0.02076942,-0.016187929,-20.632,-8.517,-22.714,1
2.9813797,6.43322,6.8121023,0.022602014,0.00030543262,-0.02687807,-20.632,-8.517,-22.714,1
2.9712043,6.417658,6.8827314,-0.009468411,0.010995574,-0.0143553335,-20.632,-8.517,-23.022,1
2.9562407,6.449381,6.9120603,0.011301007,0.018020526,-0.0076358155,-20.632,-8.517,-23.022,1
2.9747956,6.407482,6.927623,0.017104227,0.004276057,0.0067195175,-20.632,-8.517,-22.712,1
3.0340521,6.401497,6.8528037,0.03390302,0.013439035,0.006414085,-20.632,-8.517,-22.712,1
3.0508115,6.4188547,6.8013287,0.042760566,0.009162978,-0.0015271631,-20.632,-8.517,-22.712,1
2.9586349,6.3889275,6.9024835,0.013744468,0.013744468,-0.027183503,-20.632,-8.517,-22.712,1
2.9496565,6.4380083,6.933608,0.021380283,-0.0012217305,-0.0143553335,-20.632,-8.517,-22.712,1
3.015497,6.4697313,6.8091097,0.064751714,0.0009162979,-0.00580322,-20.632,-8.517,-22.712,1
3.0298622,6.4392056,6.8731546,0.042455133,-0.0070249503,0.005497787,-20.632,-8.517,-23.034,1
3.0998926,6.469133,6.7731967,0.022602014,0.07147124,0.03268129,-20.632,-8.517,-23.034,1
3.027468,6.42903,6.785766,0.0036651916,0.021380283,0.037873644,-20.632,-8.517,-23.034,1
3.12982,6.3907228,6.8785415,0.005192355,0.0143553335,0.019242255,-20.947,-8.517,-23.034,1
3.0478187,6.4230447,6.8013287,0.01985312,0.015577064,-0.020463986,-21.263,-8.517,-23.034,1
3.0376434,6.4781113,6.730101,0.0061086523,-0.008552114,-0.01160644,-21.588,-8.19,-22.705,1
3.0340521,6.403891,6.8773446,-0.00030543262,0.011911872,0.007330383,-21.588,-8.19,-22.705,1
3.0801406,6.381146,6.805518,0.021991149,0.009468411,0.004886922,-21.588,-7.872,-22.705,1
3.0711622,6.413468,6.8043213,0.021991149,-0.0015271631,-0.018325957,-21.588,-7.872,-22.378,1
3.019687,6.3805475,6.867169,0.004276057,0.017715093,-0.01282817,-21.27,-7.872,-22.378,1
2.9735985,6.3619924,6.8761473,0.025961773,0.024740042,-0.03176499,-21.27,-8.197,-22.685,1
2.9819782,6.421249,6.9120603,0.0125227375,-0.0009162979,-0.027488936,-21.27,-8.197,-22.685,1
2.9981391,6.4206505,6.7761893,0.03359759,0.0036651916,-0.009162978,-21.27,-8.197,-22.685,1
2.9735985,6.4284315,6.8689647,0.011301007,0.016798794,-0.01740966,-21.27,-7.888,-22.685,1
3.0148985,6.4026937,6.903681,0.028405234,0.018936822,-0.011911872,-21.27,-7.888,-22.384,1
2.9628246,6.4110737,6.872556,0.057726767,0.0076358155,-0.021991149,-21.27,-7.888,-22.384,1
3.0065188,6.475717,6.7570357,0.062002823,-0.029321533,-0.03145956,-20.968,-8.192,-22.686,1
2.944868,6.4661403,6.75943,0.054367006,-0.017104227,-0.03359759,-20.968,-8.192,-23.011,1
2.9412768,6.5020533,6.8013287,0.04520403,0.007330383,0.0036651916,-20.968,-8.192,-22.709,1
3.0460231,6.498462,6.7330937,0.03634648,0.01160644,0.004276057,-20.968,-8.192,-22.396,1
3.0023289,6.543353,6.823475,0.031154128,0.01740966,-0.013744468,-20.968,-8.192,-22.073,1
2.9502552,6.531382,6.694188,0.04642576,0.0106901415,-0.02107485,-20.968,-8.192,-22.073,1
2.9963434,6.4924765,6.71394,0.022602014,-0.00061086525,-0.0061086523,-20.968,-8.807,-22.715,1
3.008913,6.5547256,6.733692,0.02107485,0.007330383,-0.002443461,-20.968,-8.807,-23.036,1
2.9682117,6.497265,6.8204823,-0.003970624,0.005192355,-0.004886922,-20.968,-8.807,-23.036,1
3.0304608,6.4840965,6.7492547,0.010995574,0.009773844,-0.0018325958,-20.654,-8.807,-23.036,1
3.0119057,6.4667387,6.8240733,0.0012217305,-0.005497787,-0.0036651916,-20.654,-8.807,-23.036,1
2.939481,6.4697313,6.8851256,-0.0018325958,0.01038471,-0.013744468,-20.654,-8.807,-23.036,1
2.979584,6.4685345,6.7402763,0.0290161,0.0076358155,-0.009773844,-20.654,-8.807,-23.036,1
2.9119477,6.491878,6.7642183,0.01038471,0.0076358155,-0.016798794,-20.654,-8.807,-23.036,1
2.9005754,6.5164185,6.75524,0.045814894,0.0061086523,-0.005192355,-20.654,-8.807,-22.718,1
2.971803,6.482301,6.712743,0.034208454,-0.003970624,0.008246681,-20.654,-8.807,-22.718,1
2.996942,6.4751186,6.7229185,0.022602014,0.004276057,-0.002443461,-20.654,-8.807,-22.718,1
2.9460652,6.5098343,6.818088,-0.00030543262,0.013439035,-0.010995574,-20.654,-8.807,-22.718,1
2.9891608,6.465542,6.7863646,0.021685716,0.009773844,-0.0009162979,-20.654,-8.807,-22.718,1
3.0107086,6.43741,6.851607,0.013133603,0.014660766,-0.0033597588,-20.654,-8.807,-22.718,1
2.9724014,6.469133,6.8749504,0.009162978,0.01740966,-0.02443461,-20.654,-8.807,-22.718,1
2.9700072,6.405687,6.82946,0.0125227375,0.0070249503,-0.012217305,-20.654,-8.807,-23.051,1
2.9759927,6.4948707,6.8342485,0.008552114,0.008246681,-0.022296581,-20.654,-8.807,-23.051,1
2.955642,6.431424,6.835446,0.01863139,0.0070249503,-0.008552114,-20.654,-8.807,-23.051,1
2.9454668,6.4619503,6.8384385,0.010995574,-0.0018325958,-0.026267206,-20.654,-8.807,-23.051,1
2.895787,6.4224463,6.881534,-0.0018325958,0.009773844,-0.024129177,-20.654,-8.807,-23.051,1
2.9442697,6.4463882,6.8504095,0.018325957,0.011301007,-0.015882496,-20.654,-8.807,-23.051,1
2.9149406,6.4260373,6.855198,0.010995574,0.016187929,-0.021991149,-20.654,-8.807,-23.051,1
2.9203274,6.4188547,6.8863225,0.01038471,0.005192355,-0.003970624,-20.654,-8.807,-23.051,1
2.967613,6.3979053,6.806117,0.01863139,0.015271631,0.01160644,-20.654,-8.807,-23.051,1
2.8760347,6.427833,6.915053,-0.0030543262,0.028099801,-0.01863139,-20.654,-8.807,-23.051,1
2.9125464,6.421249,6.861782,0.013744468,0.014660766,-0.008552114,-20.654,-8.807,-23.051,1
3.0029275,6.4032927,6.872556,0.017715093,-0.0012217305,0.005497787,-20.654,-8.807,-23.051,1
2.9233203,6.421249,6.8665705,0.008552114,0.0070249503,-0.02107485,-20.654,-8.807,-23.051,1
2.9251158,6.401497,7.0305734,0.007941248,0.00580322,-0.011301007,-20.654,-8.807,-23.051,1
2.9520507,6.408081,6.807314,0.03481932,0.005192355,-0.008857546,-20.654,-8.807,-23.051,1
2.9939492,6.417059,6.84203,0.012217305,0.005192355,-0.00061086525,-20.654,-8.807,-23.051,1
2.9173348,6.405687,6.9587474,0.003970624,0.005192355,-0.017104227,-20.654,-8.489,-23.051,1
2.943671,6.3889275,6.8438253,0.03176499,-0.0061086523,-0.01038471,-20.654,-8.489,-23.051,1
2.9376855,6.39611,6.8958993,0.0030543262,0.014049901,-0.030543262,-20.654,-8.489,-23.051,1
2.891597,6.379949,6.943185,0.0021380284,0.014966198,-0.010995574,-20.654,-8.489,-23.051,1
2.9017725,6.4404025,6.8689647,0.03390302,0.0033597588,-0.009468411,-20.654,-8.489,-23.051,1
2.8868086,6.455366,6.867768,0.030543262,0.006414085,-0.007330383,-20.654,-8.489,-23.051,1
2.89459,6.4188547,6.8252707,0.03756821,0.002443461,-0.0076358155,-20.654,-8.795,-23.051,1
2.9011738,6.409278,6.9078703,0.004581489,0.008857546,-0.014049901,-20.654,-8.795,-23.051,1
2.9167361,6.4392056,6.945579,0.026572637,0.003970624,-0.007941248,-20.654,-8.795,-23.051,1
2.9765913,6.409278,6.8653736,0.0290161,0.01038471,-0.0061086523,-20.654,-8.795,-23.051,1
2.915539,6.4224463,6.873753,0.034208454,0.015577064,-0.023823744,-20.654,-8.795,-23.051,1
2.8927941,6.467936,6.8647747,0.037873644,0.0125227375,-0.006414085,-20.654,-8.795,-23.051,1
2.9167361,6.4643445,6.8545995,0.05100725,0.013439035,-0.0009162979,-20.654,-8.795,-23.051,1
2.9562407,6.463746,6.8306575,0.04428773,0.013744468,0.005497787,-20.654,-8.795,-23.051,1
2.908955,6.517017,6.7229185,0.056199603,0.0027488936,-0.0036651916,-20.353,-8.795,-23.051,1
2.8951883,6.4763155,6.7869635,0.030848695,0.009162978,0.008857546,-20.353,-8.795,-23.051,1
2.9789855,6.447585,6.8492126,0.018325957,0.0027488936,0.0018325958,-20.353,-8.795,-23.051,1
2.9508536,6.4661403,6.781576,0.03634648,0.0012217305,-0.015577064,-20.353,-8.795,-23.051,1
2.8670566,6.4781113,6.699575,0.027794369,-0.008552114,-0.02321288,-20.353,-8.795,-23.051,1
2.8993783,6.5026517,6.8366427,0.0009162979,0.006414085,-0.0018325958,-20.353,-8.795,-22.738,1
2.9879637,6.453571,6.803723,0.01740966,0.0036651916,0.011301007,-20.353,-8.795,-22.738,1
2.955642,6.464943,6.707356,0.026267206,-0.0070249503,-0.015577064,-20.353,-8.795,-22.738,1
2.8790276,6.451775,6.830059,-0.002443461,0.010995574,-0.029932396,-20.353,-8.795,-23.088,1
2.9550436,6.495469,6.851607,-0.006414085,0.0067195175,-0.01863139,-20.353,-9.107,-23.088,1
2.9532478,6.4727244,6.7959414,0.009773844,0.002443461,-0.0125227375,-20.353,-9.107,-23.088,1
2.8473043,6.510433,6.809708,-0.008857546,0.007330383,-0.026572637,-20.353,-9.107,-23.088,1
2.8904,6.455366,6.915053,-0.013133603,0.005497787,0.015577064,-20.353,-9.107,-23.088,1
3.0172927,6.385336,6.7893577,0.020158553,0.0076358155,0.01985312,-20.353,-9.107,-23.088,1
2.9921536,6.425439,6.89171,-0.003970624,0.01038471,-0.0125227375,-20.353,-9.107,-23.088,1
2.866458,6.4667387,6.929418,-0.010079277,0.009468411,-0.01985312,-20.353,-9.107,-23.088,1
2.870648,6.43322,6.8719573,0.014049901,-0.0009162979,0.00061086525,-20.353,-8.804,-23.088,1
3.0065188,6.3865333,6.8707604,0.011301007,0.013133603,0.00580322,-20.353,-8.804,-23.088,1
2.9813797,6.4152637,6.9383965,0.019547688,0.0067195175,-0.0076358155,-20.353,-8.804,-23.088,1
2.9460652,6.459556,6.799533,0.037873644,-0.0015271631,-0.021380283,-20.353,-8.804,-23.088,1
2.8987796,6.455366,6.8282633,0.010079277,0.0021380284,-0.004886922,-20.353,-8.804,-23.088,1
2.954445,6.4098763,6.8851256,0.004886922,0.004276057,0.0076358155,-20.353,-8.804,-23.088,1
2.9418752,6.409278,6.8653736,0.015882496,0.012217305,-0.019547688,-20.353,-8.804,-23.088,1
2.9131448,6.4284315,6.8342485,0.012217305,-0.0036651916,-0.018325957,-20.353,-8.804,-23.088,1
2.9340942,6.409278,6.91625,-0.0009162979,0.005497787,-0.019547688,-20.353,-8.804,-23.455,1
2.9340942,6.4308257,6.8049197,0.020158553,0.0036651916,-0.0036651916,-20.353,-8.804,-23.455,1
3.0017304,6.39192,6.8689647,0.0030543262,0.004886922,-0.010079277,-20.353,-8.804,-23.455,1
2.9334955,6.4146647,6.8450227,0.01282817,0.007941248,-0.031154128,-20.353,-8.804,-23.123,1
2.9352913,6.4122705,6.877943,0.006414085,-0.0067195175,-0.0021380284,-20.353,-8.804,-23.123,1
2.9747956,6.4128695,6.835446,0.019242255,-0.004581489,-0.003970624,-20.353,-8.804,-23.123,1
2.907758,6.3805475,6.8318543,0.010079277,0.01160644,-0.009468411,-20.353,-8.804,-23.123,1
2.914342,6.4026937,6.9108634,0.008552114,0.009773844,-0.015577064,-20.353,-8.497,-22.807,1
2.8508956,6.3805475,6.9306154,0.007330383,0.013439035,-0.01863139,-20.353,-8.497,-23.118,1
2.9454668,6.377555,6.8545995,0.01160644,0.0067195175,-0.0067195175,-20.353,-8.497,-23.118,1
2.9203274,6.385336,6.9701195,0.014660766,0.018325957,-0.006414085,-20.353,-8.497,-23.118,1
2.9017725,6.3967085,6.843227,0.035124753,-0.0015271631,-0.0076358155,-20.353,-8.497,-23.118,1
2.9215245,6.4032927,6.8569937,0.011301007,0.005497787,-0.0125227375,-20.353,-8.497,-23.118,1
2.879626,6.3949127,6.8438253,0.02076942,0.014966198,-0.020463986,-20.353,-8.497,-23.118,1
2.8814218,6.332065,6.8827314,0.009162978,0.021685716,-0.025350908,-20.353,-8.828,-23.118,1
2.801216,6.4781113,6.9252286,-0.004276057,0.015577064,-0.05589417,-20.353,-8.828,-23.118,1
2.7629087,6.4146647,6.943185,0.015271631,0.00061086525,-0.02565634,-20.353,-8.828,-23.118,1
2.8550856,6.408081,6.877943,0.0070249503,0.0012217305,-0.0012217305,-20.353,-8.526,-23.118,1
2.8389246,6.3847375,7.043143,-0.002443461,0.011301007,-0.0030543262,-20.353,-8.526,-23.118,1
2.8137856,6.405088,6.9306154,0.035430185,0.0036651916,-0.009468411,-20.353,-8.83,-23.118,1
2.7850552,6.3943143,6.91625,0.025350908,0.008857546,-0.01282817,-20.353,-8.83,-23.118,1
2.823961,6.419453,6.9371996,0.022907447,0.015577064,0.010079277,-20.353,-8.83,-23.118,1
2.883816,6.4487824,6.906075,0.03573562,0.0106901415,-0.005192355,-20.353,-8.83,-23.118,1
2.8652608,6.4469867,6.8007298,0.051618114,0.010995574,-0.008857546,-20.353,-8.522,-22.811,1
2.7928362,6.451775,6.9449806,0.004581489,0.027794369,-0.008246681,-20.353,-8.522,-22.811,1
2.8257565,6.42903,6.931214,0.03756821,0.007330383,-0.013133603,-20.353,-8.522,-22.811,1
2.8341362,6.4727244,6.8240733,0.047647487,0.0076358155,-0.007941248,-20.353,-8.522,-22.811,1
2.8173769,6.4751186,6.843227,0.028710667,0.0106901415,-0.014660766,-20.353,-8.824,-23.118,1
2.8215668,6.4661403,6.969521,0.022602014,0.014660766,-0.00061086525,-20.353,-8.824,-23.118,1
2.8724434,6.4817023,6.8384385,0.041233405,0.012217305,-0.002443461,-20.353,-8.824,-23.118,1
2.8766334,6.4787097,6.7749925,0.028099801,0.00580322,-0.01038471,-20.353,-9.132,-23.118,1
2.8353333,6.499659,6.894104,0.0076358155,0.0106901415,-0.022296581,-20.353,-9.132,-23.118,1
2.8101943,6.4960675,6.7893577,0.028099801,-0.006414085,-0.017104227,-20.353,-9.132,-23.118,1
2.7808652,6.4583592,6.771401,0.011301007,0.008246681,-0.014966198,-20.353,-9.132,-23.118,1
2.7790697,6.4846954,6.9048777,-0.005497787,0.011301007,-0.022296581,-20.353,-9.132,-23.118,1
2.8275523,6.483498,6.7929487,0.016798794,0.0027488936,-0.0125227375,-20.353,-9.132,-23.118,1
2.7748797,6.469133,6.823475,0.0036651916,0.004276057,-0.004581489,-20.353,-9.132,-23.118,1
2.7629087,6.499659,6.872556,0.0009162979,0.013439035,-0.005497787,-20.353,-9.132,-23.118,1
2.7748797,6.452972,6.974908,0.0027488936,0.004886922,0.0067195175,-20.353,-9.132,-23.118,1
2.858677,6.4607534,6.8599863,0.009468411,-0.0009162979,0.009162978,-20.353,-9.132,-23.118,1
2.8383262,6.457162,6.8563952,0.0067195175,0.0076358155,-0.004886922,-20.353,-9.132,-23.118,1
2.7964275,6.4607534,6.9437833,0.002443461,0.014049901,-0.004581489,-20.353,-9.132,-23.118,1
2.8568811,6.409278,6.9102645,0.01038471,0.009468411,-0.0033597588,-20.353,-9.132,-23.118,1
2.8520927,6.4469867,6.896498,0.02321288,0.002443461,-0.013133603,-20.353,-9.132,-23.118,1
2.8640637,6.419453,6.9144545,0.012217305,-0.0027488936,-0.00061086525,-20.353,-9.132,-23.118,1
2.8760347,6.4523735,6.789956,0.022296581,0.009162978,-0.005192355,-20.353,-9.132,-23.429,1
2.8113914,6.413468,6.9970546,-0.003970624,0.029626964,-0.01740966,-20.353,-9.132,-23.429,1
2.80361,6.421249,6.9108634,-0.00061086525,0.0106901415,-0.011911872,-20.353,-9.132,-23.429,1
2.80361,6.384139,6.9144545,0.0070249503,0.0030543262,-0.007330383,-20.353,-8.81,-23.13,1
2.8173769,6.403891,6.937798,0.015577064,0.007330383,-0.005192355,-20.353,-8.502,-23.13,1
2.834735,6.3727665,6.9850836,0.022602014,0.0076358155,-0.0030543262,-20.353,-8.502,-23.13,1
2.855684,6.395511,6.9078703,0.026572637,0.0030543262,-0.0027488936,-20.353,-8.502,-23.13,1
2.8514943,6.379949,7.0090256,0.0036651916,0.008857546,-0.015271631,-20.353,-8.804,-23.13,1
2.8149827,6.3925185,6.9467764,0.009773844,0.0106901415,-0.016798794,-20.353,-8.804,-23.13,1
2.8485014,6.341642,7.00304,-0.0027488936,0.015271631,0.0027488936,-20.353,-8.804,-23.13,1
2.846706,6.3913217,6.987478,0.01863139,0.013744468,-0.009162978,-20.353,-8.457,-23.13,1
2.7868507,6.3781533,6.9288197,0.02321288,-0.0009162979,-0.0012217305,-20.353,-8.457,-23.13,1
2.779668,6.3901243,6.9485717,0.021380283,0.0061086523,-0.00061086525,-20.353,-8.457,-23.13,1
2.8006175,6.395511,6.929418,0.027794369,0.013133603,-0.0018325958,-20.353,-8.798,-23.519,1
2.8383262,6.385336,6.9485717,0.016187929,0.010079277,-0.0033597588,-20.353,-8.798,-23.519,1
2.842516,6.351817,6.940192,0.0030543262,0.010079277,-0.0021380284,-20.353,-8.494,-23.19,1
2.8419175,6.341642,7.001843,0.013744468,0.0143553335,-0.022602014,-20.353,-8.494,-23.19,1
2.8101943,6.39611,6.937798,0.02565634,0.0009162979,-0.015271631,-20.353,-8.494,-23.493,1
2.8203697,6.3697734,6.91625,0.02076942,0.0143553335,-0.01160644,-20.353,-8.494,-23.493,1
2.7497406,6.3404446,6.9862804,-0.008857546,0.019547688,-0.020463986,-20.353,-8.811,-23.493,1
2.7880478,6.373365,7.029975,0.0067195175,0.03359759,-0.05222898,-20.353,-8.811,-23.493,1
2.6862943,6.441001,6.983288,0.023518313,0.009162978,-0.01863139,-20.036,-8.811,-23.493,1
2.8173769,6.3781533,6.949769,0.040317107,-0.0027488936,0.022296581,-20.036,-8.811,-23.493,1
2.8616695,6.3512187,6.9330096,0.048563786,0.005192355,0.0030543262,-20.036,-8.811,-23.181,1
2.8161798,6.3631897,6.975507,0.03268129,-0.0027488936,-0.009162978,-20.036,-8.811,-23.181,1
2.7485435,6.3913217,6.925827,0.03359759,0.004581489,-0.015577064,-20.036,-8.811,-23.181,1
2.802413,6.367978,6.965331,0.02076942,-0.003970624,-0.00030543262,-20.036,-8.502,-23.181,1
2.7688942,6.3697734,6.881534,0.004581489,-0.007330383,-0.011911872,-20.036,-8.502,-23.181,1
2.7928362,6.3230867,7.0251865,-0.0061086523,0.015577064,-0.009773844,-20.036,-8.502,-23.521,1
2.8293478,6.355408,6.9342065,0.009773844,-0.0009162979,-0.011911872,-20.036,-8.815,-23.521,1
2.801216,6.3661823,6.9725137,0.015271631,0.008552114,-0.0106901415,-20.036,-8.815,-23.521,1
2.7832594,6.361394,6.988076,0.027183503,-0.00061086525,-0.009162978,-20.036,-8.453,-23.21,1
2.8293478,6.3566055,7.0664864,0.015271631,0.006414085,0.004581489,-20.036,-8.453,-22.883,1
2.8311436,6.3985043,6.9198413,0.049785517,0.0015271631,-0.0030543262,-20.036,-8.453,-23.187,1
2.7922378,6.363788,6.8522053,0.028710667,0.0015271631,-0.0033597588,-20.036,-8.789,-23.503,1
2.767697,6.35062,6.9701195,-0.00061086525,0.016798794,-0.0125227375,-20.036,-8.789,-23.503,1
2.7694929,6.362591,6.9288197,0.022296581,0.0015271631,-0.008857546,-20.036,-8.789,-23.503,1
2.789245,6.4026937,6.976105,0.016798794,0.0061086523,-0.008552114,-20.036,-8.789,-23.503,1
2.835932,6.3871317,6.945579,0.032375857,0.013133603,0.0009162979,-20.036,-8.789,-23.503,1
2.8329391,6.3685765,6.928221,0.016798794,0.0036651916,-0.013133603,-20.036,-8.789,-23.503,1
2.7581203,6.4272346,6.975507,0.0143553335,0.009162978,-0.02687807,-20.036,-8.789,-23.503,1
2.7862523,6.367379,6.995259,0.012217305,0.002443461,-0.0012217305,-20.036,-8.789,-23.503,1
2.7886465,6.362591,6.8611836,0.023823744,0.004886922,-0.0076358155,-20.036,-8.789,-23.19,1
2.7575219,6.347627,7.017405,0.0067195175,0.008857546,-0.014966198,-20.036,-8.48,-23.19,1
2.7712884,6.349423,6.983288,0.009773844,0.0021380284,0.0021380284,-20.036,-8.48,-23.19,1
2.806603,6.3667808,6.9461775,0.027183503,0.0033597588,-0.00061086525,-20.036,-8.48,-23.497,1
2.8054059,6.3141084,6.9288197,0.01740966,0.012217305,-0.028405234,-20.036,-8.48,-23.497,1
2.754529,6.3230867,7.089231,0.002443461,0.009162978,-0.01863139,-20.036,-8.48,-23.497,1
2.7611132,6.3829417,6.88333,0.03573562,-0.01038471,-0.0143553335,-20.036,-8.48,-23.497,1
2.7754784,6.3165026,6.9467764,0.010079277,0.0015271631,-0.013133603,-20.036,-8.48,-23.497,1
2.7856536,6.3242836,7.0688806,-0.0027488936,0.0106901415,-0.0030543262,-20.036,-8.792,-23.802,1
2.8125885,6.3284736,7.0036387,0.009773844,0.00580322,0.004276057,-20.036,-8.792,-23.802,1
2.8443117,6.3045316,6.995259,0.011911872,0.0143553335,0.0033597588,-20.036,-8.792,-23.802,1
2.771887,6.319495,7.145495,-0.010079277,0.014049901,-0.010995574,-20.036,-8.792,-23.802,1
2.8089972,6.3182983,7.0275807,0.03145956,0.002443461,-0.0033597588,-20.036,-8.792,-23.492,1
2.8502972,6.3021374,6.964134,0.01985312,0.008246681,-0.0021380284,-20.036,-8.792,-23.492,1
2.7730842,6.315904,7.121553,-0.004886922,0.019547688,-0.013744468,-20.036,-8.792,-23.492,1
2.795829,6.2686186,7.131728,0.007941248,0.0106901415,0.00061086525,-20.036,-8.792,-23.492,1
2.8622682,6.289568,6.996456,0.015882496,0.00580322,0.005192355,-20.036,-8.792,-23.803,1
2.7790697,6.279991,7.0365586,0.023518313,0.014660766,-0.0067195175,-20.036,-8.792,-23.803,1
2.7635074,6.296152,7.03177,0.029932396,0.006414085,-0.015271631,-20.036,-8.792,-23.803,1
2.7982233,6.295553,7.0066314,0.029932396,0.0027488936,-0.0030543262,-20.036,-8.792,-23.803,1
2.8209682,6.2554507,7.0305734,0.007941248,0.004581489,0.0027488936,-20.036,-8.792,-23.803,1
2.8221653,6.2728086,7.1544733,0.004276057,0.016187929,-0.014660766,-20.036,-8.792,-23.803,1
2.7856536,6.2662244,6.9970546,0.02687807,0.01160644,-0.01985312,-20.036,-8.792,-23.803,1
2.7036524,6.2991447,7.07726,0.013133603,0.011301007,-0.028405234,-20.036,-8.792,-23.803,1
2.7802668,6.2626333,7.0832458,0.016187929,0.011301007,-0.008857546,-20.036,-8.792,-23.803,1
2.783858,6.2859764,6.981492,0.04428773,0.00030543262,-0.011301007,-20.036,-8.792,-23.803,1
2.755726,6.273407,7.1071877,0.0018325958,0.013439035,-0.019242255,-20.036,-8.792,-23.803,1
2.753332,6.281188,7.0700774,0.0009162979,0.004581489,-0.005192355,-20.036,-8.129,-23.165,1
2.7659016,6.2943563,7.135918,0.0015271631,0.0070249503,-0.004276057,-20.036,-8.129,-22.842,1
2.8149827,6.2913637,7.031172,0.016493361,0.00580322,-0.008857546,-20.036,-8.129,-22.842,1
2.822764,6.265626,7.123947,0.016187929,0.013439035,-0.00580322,-20.036,-8.129,-23.194,1
2.7383683,6.290765,7.079056,0.034513887,0.012217305,-0.015271631,-20.036,-8.432,-23.194,1
2.7844565,6.314707,7.0724716,0.03359759,0.01282817,-0.008552114,-20.036,-8.432,-23.509,1
2.7688942,6.3584013,6.9252286,0.064751714,0.004581489,-0.018325957,-20.036,-8.432,-23.509,1
2.7832594,6.2883706,7.0964136,0.009773844,0.013439035,-0.006414085,-20.036,-8.432,-23.509,1
2.8095956,6.320094,7.061698,0.0290161,0.008857546,-0.015882496,-20.036,-8.432,-23.509,1
2.8311436,6.343437,6.9599442,0.04428773,0.015577064,-0.019242255,-20.036,-8.432,-23.509,1
2.8215668,6.379949,7.0395517,0.0021380284,0.015271631,-0.040927973,-20.036,-8.432,-23.509,1
2.5971103,6.335656,7.007828,-0.00061086525,0.0571159,-0.10781772,-20.036,-8.432,-23.509,1
2.5103204,6.3643866,7.0461354,0.021685716,0.041233405,-0.08552113,-20.036,-8.737,-23.509,1
2.4774003,6.518214,7.1748238,0.024740042,0.027488936,-0.051923547,-20.036,-8.737,-23.509,1
2.2631192,6.7145386,7.620744,0.070249505,0.20616703,-0.1591304,-19.734,-9.046,-23.509,1
0.700304,6.3009405,7.952341,0.13194689,0.7119634,-0.8512407,-19.123,-9.385,-23.814,1
0.018555064,6.8480153,5.5802855,0.81092364,1.29198,-0.8368854,-14.707,-10.464,-24.497,1
-0.40043023,7.0090256,6.5804634,-0.31520647,0.7107417,-0.86132,-12.022,-11.776,-25.543,1
-0.9900024,6.7079544,8.406042,-0.6533204,-0.03176499,-0.22052236,-11.198,-12.535,-26.268,1
-0.3250129,6.401497,6.607398,0.013744468,0.1600467,0.3903429,-10.884,-12.477,-26.968,1
-0.81283146,6.9366007,6.05733,0.12980886,0.7076874,0.5467244,-10.511,-11.75,-27.584,1
-0.17717093,6.1596823,7.7727757,-0.3136793,0.2843578,0.49174652,-10.189,-11.106,-27.584,1
0.3705027,6.4541693,6.939594,0.13194689,0.57604593,0.46303585,-9.857,-10.394,-27.905,1
0.4297592,6.6229606,7.1909847,-0.048258353,0.15088372,0.12614368,-9.542,-9.753,-28.231,1
-0.19572599,6.423643,7.335834,-0.048563786,0.06169739,-0.057421334,-9.234,-9.753,-28.955,1
-0.9223662,6.415862,7.4112515,-0.03756821,0.14874569,-0.2049453,-8.929,-9.753,-29.313,1
-1.234211,6.673837,6.9383965,0.07513642,0.19547687,-0.18448131,-8.612,-9.753,-29.624,1
-1.292869,6.5487404,7.4256167,-0.07452556,0.13408493,-0.15332718,-8.296,-9.753,-29.624,1
-1.2569559,6.4421983,7.379528,-0.005192355,0.14996742,-0.0143553335,-7.977,-9.753,-29.624,1
-0.88046765,6.375759,7.077859,0.019242255,0.032986723,0.027183503,-7.67,-9.436,-29.624,1
-1.6118963,6.6720414,7.4441714,0.028710667,0.057421334,-0.067500606,-7.333,-9.436,-29.624,1
-2.802413,7.0186024,8.017583,0.14263703,0.025045475,0.087964594,-7.333,-9.436,-29.624,1
-1.4826094,6.7324953,7.265804,0.5149594,0.16676621,0.6114761,-7.333,-9.436,-29.624,1
0.3866636,6.872556,6.633136,0.48502702,0.33536503,0.7113526,-7.333,-9.739,-29.321,1
0.31902736,6.975507,6.1237693,0.32498032,0.0729984,0.10415252,-7.333,-10.372,-28.964,1
0.19093758,7.221511,5.7257333,0.26847526,-0.20738874,-0.28191432,-7.333,-11.122,-28.645,1
-0.15023616,7.1113777,5.7203465,0.13652839,-0.18661933,-0.33292156,-7.333,-11.875,-28.34,1
-0.32022446,7.1155677,6.3105173,-0.004886922,0.06627888,-0.32620203,-7.333,-12.51,-28.34,1
-0.79487497,7.349601,5.831677,0.25473082,0.16035213,-0.5119051,-7.333,-12.51,-28.34,1
-1.0899603,7.231686,5.873575,0.17501289,-0.2012801,-0.5891795,-6.687,-13.165,-28.019,1
-1.0672154,7.2352777,5.3139305,0.21868975,-0.6630942,-0.35613444,-6.378,-13.78,-28.019,1
-2.6431987,7.3430166,6.4020953,-0.39645153,-1.2366967,-0.59315014,-6.378,-14.419,-27.342,1
-1.7357962,7.132327,6.2883706,-0.4098906,-1.0809261,0.17623462,-7.943,-14.759,-27.017,1
-2.0087352,6.0250087,6.938995,-0.71685034,-0.70005155,0.31673363,-10.115,-14.021,-26.679,1
1.3341689,6.84203,7.574057,-0.03726278,-0.07269296,1.0424415,-11.711,-12.663,-26.359,1
0.35553896,7.9050555,7.1586633,0.11026118,1.0995574,-0.013744468,-12.405,-11.61,-26.052,1
-0.6793547,6.609194,8.323442,-0.46853364,-0.19394971,-0.54153204,-12.405,-11.28,-26.409,1
0.16579847,6.3380504,6.8647747,0.23365596,-0.20372356,-0.14019357,-12.049,-11.28,-26.774,1
-0.15322891,6.541558,7.1143703,0.00061086525,-0.032375857,-0.21227567,-11.741,-11.599,-27.099,1
-0.47105917,6.719327,7.0132155,0.00061086525,0.032070424,-0.26358834,-11.741,-11.599,-26.783,1
-0.62368953,6.785766,7.117962,-0.032986723,0.036651913,-0.19914207,-11.427,-11.906,-26.783,1
-0.54049104,6.599617,7.217321,-0.060170226,-0.11362094,-0.25534168,-11.112,-12.22,-27.104,1
-0.6075287,6.4242415,6.9850836,0.056505036,-0.0033597588,-0.15363261,-11.112,-12.539,-27.104,1
-1.1605892,6.43741,7.0168066,0.019242255,0.09254608,-0.22815818,-10.791,-12.539,-27.104,1
-1.3928268,6.2584434,6.791153,-0.10720685,-0.03848451,-0.2941316,-10.469,-12.85,-27.104,1
-1.5819688,6.6666546,6.8330517,-0.22143865,-0.0012217305,-0.30298916,-10.144,-12.85,-27.415,1
-1.0097545,6.0268044,8.02297,-0.41874814,-0.24037547,-0.07086037,-9.835,-12.545,-27.415,1
-0.97862995,6.049549,7.820061,-0.035430185,0.15699236,0.089186326,-9.835,-11.824,-27.735,1
-1.4383167,6.0250087,7.7410526,0.033292156,0.12003502,0.089491755,-9.835,-11.17,-27.735,1
-1.3180081,5.8622026,7.6015906,0.029321533,0.05375614,0.09682214,-9.835,-10.868,-27.735,1
-0.7332243,6.175245,7.3525934,0.21991149,0.28313604,0.24281894,-9.835,-10.868,-27.735,1
-0.26396075,5.8203044,7.7440453,-0.017104227,0.20372356,0.1957823,-9.516,-11.233,-28.094,1
-0.9475053,6.131551,7.8009076,0.04917465,0.08857546,-0.13316862,-9.516,-11.534,-28.414,1
-1.8752584,6.431424,7.149685,0.22357668,0.03573562,-0.20158553,-9.193,-11.534,-28.414,1
-1.6968905,6.5708866,6.8881183,0.03268129,-0.0125227375,-0.03634648,-8.86,-11.534,-28.414,1
-1.2258313,6.130952,7.6548615,-0.35796702,-0.22540927,0.07086037,-8.86,-11.534,-28.414,1
-0.7787141,5.8604074,8.027759,-0.19792034,-0.121256754,0.25473082,-9.17,-11.175,-28.414,1
-0.7260417,5.8999114,7.743447,-0.09437868,-0.054367006,0.14172074,-9.471,-10.498,-28.414,1
-1.4496891,5.767632,7.064092,0.0888809,-0.109650314,-0.06658431,-9.773,-9.84,-28.068,1
-0.6488287,5.8215013,7.5471225,-0.003970624,0.2489276,0.22266038,-9.773,-9.84,-28.068,1
-0.5967548,5.590461,8.696339,-0.19058995,0.14019357,0.18203785,-9.773,-9.84,-28.436,1
-0.56203884,5.9962783,7.9906483,0.2125811,0.1301143,0.0421497,-9.773,-9.84,-28.436,1
-0.75477207,5.947197,7.53156,0.20463985,0.048563786,-0.069027774,-9.773,-9.84,-28.799,1
-1.0043676,6.043564,7.1580644,0.13683382,-0.1133155,-0.19700404,-9.773,-10.153,-28.799,1
-1.3509283,6.1740475,7.3112936,0.01863139,-0.07544186,-0.22204952,-9.458,-10.769,-28.799,1
-1.3521254,6.1225724,7.789535,-0.07422013,-0.08979719,-0.103847094,-9.458,-10.769,-28.799,1
-1.0199299,6.033987,7.5680714,0.034208454,0.03481932,0.062002823,-9.458,-10.769,-28.799,1
-0.866701,6.0405707,7.511808,0.01038471,-0.012217305,0.032070424,-9.458,-10.769,-28.799,1
-1.0163386,5.9687448,7.5626845,-0.010995574,0.004886922,-0.022602014,-9.458,-10.769,-28.799,1
-1.1300632,6.054936,7.683592,-0.011911872,0.0125227375,-0.0290161,-9.458,-10.769,-28.471,1
-1.0648212,6.0411696,7.608773,0.009468411,-0.0033597588,0.010995574,-9.458,-10.769,-28.471,1
-0.94810385,5.9968767,7.555502,-0.0030543262,0.00061086525,0.028405234,-9.458,-10.769,-28.471,1
-0.85473,5.919065,7.6410947,-0.016187929,0.0070249503,0.01985312,-9.458,-10.769,-28.471,1
-0.92775315,5.9687448,7.693767,-0.004276057,-0.006414085,-0.023518313,-9.458,-10.769,-28.808,1
-0.97503865,5.93343,7.65546,-0.005497787,-0.0033597588,-0.027488936,-9.458,-10.769,-28.808,1
-0.9959879,5.951387,7.6919713,0.004886922,0.004581489,-0.027488936,-9.458,-10.769,-28.808,1
-0.94690675,5.9364233,7.615956,0.009468411,0.005192355,-0.007941248,-9.458,-10.469,-28.498,1
-1.0235212,5.8759694,7.792528,-0.006414085,0.008246681,-0.014966198,-9.458,-10.469,-28.498,1
-1.0145429,5.9160724,7.767389,-0.016798794,0.018020526,-0.0076358155,-9.458,-10.469,-28.498,1
-0.9211691,5.9106855,7.6524673,0.022602014,0.0015271631,0.005192355,-9.458,-10.469,-28.498,1
-0.9367314,5.872977,7.7584105,0.0009162979,0.014660766,0.0018325958,-9.458,-10.469,-28.495,1
-0.96187055,5.886145,7.787141,0.022907447,0.017104227,-0.0143553335,-9.458,-10.469,-28.495,1
-0.93972415,5.877765,7.736264,0.032986723,0.010995574,-0.008857546,-9.458,-10.13,-28.495,1
-0.9528923,5.8771667,7.740454,0.03940081,0.005497787,-0.006414085,-9.458,-10.13,-28.495,1
-0.9840169,5.9501896,7.623737,0.03940081,0.01740966,-0.017715093,-9.761,-10.13,-28.495,1
-0.9780314,5.917868,7.700351,0.018325957,0.022296581,-0.012217305,-9.761,-10.455,-28.81,1
-1.0067618,5.9041014,7.709928,0.03023783,0.020158553,-0.021991149,-9.761,-10.455,-28.81,1
-1.0175357,5.909488,7.702147,0.03268129,0.014660766,-0.038789943,-9.761,-10.455,-28.81,1
-1.0767922,5.947197,7.6321163,0.04734206,0.018020526,-0.02443461,-9.761,-10.455,-28.482,1
-1.0319009,5.9448028,7.6387005,0.021685716,0.016187929,-0.015577064,-9.761,-10.455,-28.482,1
-1.0049661,5.9023056,7.6668324,0.021685716,0.0067195175,-0.004276057,-9.761,-10.455,-28.482,1
-1.0366893,5.9465985,7.5614877,0.030543262,-0.003970624,-0.021380283,-9.455,-10.455,-28.482,1
-1.1067197,5.9304376,7.630321,0.01282817,0.016187929,-0.02443461,-9.455,-10.455,-28.482,1
-1.1324574,5.93343,7.5692687,0.017104227,0.014660766,-0.0076358155,-9.455,-10.455,-28.482,1
-1.0414777,5.9442043,7.60997,0.027488936,0.016187929,0.00061086525,-9.455,-10.768,-28.482,1
-1.0145429,5.8909335,7.6865845,0.015577064,0.024740042,-0.032986723,-9.455,-10.768,-28.482,1
-1.1013328,5.907693,7.7308774,0.005192355,0.014660766,-0.04917465,-9.455,-10.424,-28.482,1
-1.1797429,5.9148755,7.6201453,0.025961773,0.004886922,-0.050701816,-9.455,-10.424,-28.482,1
-1.1965023,5.9106855,7.623737,0.01282817,0.014660766,-0.013133603,-9.455,-10.424,-28.482,1
-1.1306617,5.8442464,7.747637,-0.012217305,0.014966198,0.0076358155,-9.455,-10.424,-28.482,1
-1.0911574,5.868787,7.630321,0.04520403,0.017715093,0.009468411,-9.455,-10.424,-28.482,1
-1.0528502,5.8424506,7.7027454,0.020158553,0.053450707,0.032986723,-9.455,-10.424,-28.819,1
-0.9247604,6.0740895,7.543531,0.061086524,0.0009162979,-0.0027488936,-9.455,-10.424,-28.819,1
-1.0809821,5.9729347,7.583634,0.07269296,0.010079277,0.03634648,-9.455,-10.424,-28.819,1
-1.0588357,5.905897,7.7207017,-0.026572637,-0.056505036,-0.008246681,-10.101,-10.424,-28.488,1
-1.0229226,5.8723783,7.7745714,-0.008246681,-0.011301007,0.012217305,-10.415,-10.115,-28.186,1
-0.9684546,5.905897,7.6369047,0.02687807,-0.004886922,0.011301007,-10.722,-10.115,-28.186,1
-0.9636662,5.909488,7.645883,0.029321533,-0.007330383,0.0076358155,-10.722,-10.115,-28.186,1
-0.9540894,5.932832,7.690176,0.018325957,-0.00061086525,0.004276057,-10.722,-10.115,-28.186,1
-0.97982705,5.919065,7.6764092,0.029321533,-0.0015271631,0.0033597588,-10.722,-10.115,-28.518,1
-1.0001777,5.9597664,7.747637,0.05375614,-0.015577064,-0.0070249503,-10.722,-10.115,-28.518,1
-0.93254155,6.019023,7.5561004,0.121256754,-0.04917465,-0.0143553335,-10.722,-10.115,-28.518,1
-0.842759,6.1141925,7.5788455,0.095294975,-0.053450707,0.0027488936,-10.722,-10.115,-28.108,1
-0.75118077,6.0956373,7.5590935,0.073303826,-0.015882496,-0.017104227,-11.05,-10.433,-28.108,1
-0.94690675,6.0291986,7.5531077,0.04153884,0.017104227,-0.059864793,-11.05,-10.433,-27.767,1
-1.027711,6.169259,7.5812397,0.025961773,-0.015577064,-0.08827003,-11.05,-10.433,-27.767,1
-0.9840169,6.137536,7.5225816,0.035124753,0.0076358155,-0.005497787,-11.05,-10.743,-27.767,1
-0.96905315,6.1106014,7.475895,0.022907447,0.030543262,0.009162978,-11.05,-10.743,-27.767,1
-0.908001,6.06571,7.579444,0.0067195175,0.034513887,0.018325957,-10.716,-10.743,-27.767,1
-0.94331545,6.081871,7.5866265,0.023823744,0.008857546,-0.014660766,-10.374,-11.062,-27.767,1
-1.0468647,6.0860605,7.487866,0.050396383,-0.04428773,-0.002443461,-10.374,-11.062,-27.767,1
-0.9056068,6.1106014,7.551312,-0.003970624,0.004581489,-0.00580322,-10.374,-11.062,-27.767,1
-0.89902276,6.099229,7.5465236,0.0021380284,0.008552114,0.0143553335,-10.71,-10.752,-27.767,1
-0.90261406,6.071097,7.587225,0.009773844,0.009468411,-0.027794369,-10.71,-10.752,-27.767,1
-0.95947635,6.109404,7.543531,0.007330383,0.01282817,-0.020158553,-10.71,-11.09,-27.767,1
-0.91458505,6.0986304,7.5201874,0.015577064,0.003970624,0.0021380284,-10.71,-11.09,-27.767,1
-0.9103952,6.069301,7.6746135,0.013744468,0.01282817,0.0015271631,-10.71,-11.09,-27.767,1
-0.97264445,6.114791,7.501034,0.053145275,-0.002443461,-0.028405234,-10.71,-11.09,-27.767,1
-0.9331401,6.0998273,7.4310036,0.03390302,0.011911872,0.0015271631,-10.71,-10.783,-27.767,1
-1.033098,6.130952,7.5531077,0.004886922,0.007330383,-0.017715093,-10.71,-10.783,-27.767,1
-0.91338795,6.105214,7.5584946,0.026267206,0.015271631,-0.011911872,-10.408,-11.097,-27.767,1
-0.8888474,6.11539,7.482479,0.039095376,0.008857546,-0.013744468,-10.408,-11.097,-27.767,1
-0.96665895,6.1243677,7.5201874,0.030848695,0.006414085,-0.032986723,-10.408,-11.097,-27.767,1
-1.06123,6.129755,7.541735,0.010079277,0.00580322,-0.03023783,-10.408,-11.097,-27.767,1
-0.9756372,6.132149,7.498041,0.04642576,0.01282817,0.007330383,-10.408,-11.097,-28.071,1
-0.9307459,6.120178,7.415441,0.036957346,0.008857546,0.00061086525,-10.408,-11.097,-28.071,1
-0.9816227,6.145916,7.539341,0.025961773,0.019547688,-0.022602014,-10.408,-11.413,-28.071,1
-1.0235212,6.1465144,7.4950485,0.023823744,0.0076358155,-0.014966198,-10.102,-11.413,-28.071,1
-0.9331401,6.145317,7.478289,0.03481932,0.009773844,-0.014966198,-10.102,-11.413,-27.763,1
-1.0067618,6.108207,7.547721,0.00580322,0.022296581,-0.009468411,-10.102,-11.413,-27.763,1
-1.0031705,6.108207,7.5626845,0.011911872,0.01038471,-0.01038471,-9.8,-11.413,-27.763,1
-0.96426475,6.1566896,7.4070616,0.036651913,0.008857546,-0.003970624,-9.8,-11.413,-28.073,1
-0.95708215,6.084265,7.4806833,0.006414085,0.0021380284,0.003970624,-9.8,-11.413,-28.073,1
-1.01574,6.0998273,7.567473,0.01038471,0.01160644,-0.009468411,-9.8,-11.413,-28.073,1
-0.98222125,6.0902505,7.6213427,0.014049901,0.00580322,-0.0027488936,-9.8,-11.413,-28.073,1
-0.93134445,6.1004257,7.5770497,0.016187929,0.0027488936,0.0061086523,-9.8,-11.109,-28.073,1
-0.92176765,6.055535,7.5094137,0.014660766,0.005192355,-0.0015271631,-9.8,-11.109,-27.755,1
-0.9540894,6.077681,7.4711065,-0.0067195175,0.006414085,-0.028405234,-9.8,-11.109,-27.755,1
-1.043872,6.0130377,7.773973,-0.048258353,0.018020526,-0.024129177,-9.8,-11.109,-28.094,1
-0.9127894,6.013636,7.6105685,0.019547688,0.012217305,0.01282817,-9.8,-11.109,-28.094,1
-0.8846575,6.0040593,7.5710645,0.012217305,0.005497787,0.009773844,-9.8,-11.109,-28.094,1
-0.9056068,6.013636,7.569867,0.008857546,0.004886922,-0.0036651916,-9.8,-11.109,-28.094,1
-0.92535895,5.99149,7.6883802,0.006414085,0.0076358155,0.003970624,-9.8,-11.109,-28.421,1
-0.8996213,5.98311,7.6225395,0.030543262,-0.0027488936,0.0033597588,-9.8,-11.109,-28.421,1
-0.9427169,6.007052,7.6410947,0.01985312,0.00030543262,-0.014049901,-9.8,-10.795,-28.115,1
-0.943914,6.001665,7.6704235,0.0106901415,0.0018325958,-0.0021380284,-9.8,-10.795,-28.115,1
-0.87089086,5.999271,7.603985,0.017104227,-0.004276057,0.004581489,-9.8,-11.102,-28.115,1
-0.87807345,5.9639564,7.6111674,-0.009162978,0.0015271631,-0.0030543262,-9.8,-11.102,-28.115,1
-0.95588505,5.967548,7.699154,-0.010079277,0.017104227,-0.021991149,-9.8,-11.102,-28.115,1
-0.9415198,6.0184245,7.687183,-0.002443461,0.0070249503,-0.019242255,-9.8,-11.102,-28.115,1
-0.89902276,5.952584,7.6841903,0.011301007,0.01985312,-0.008552114,-9.8,-11.102,-28.437,1
-1.0151415,5.93762,7.681796,0.007941248,0.0143553335,-0.025350908,-9.8,-11.102,-28.437,1
-1.0109516,5.9771247,7.6823945,0.015271631,0.015577064,-0.01282817,-9.8,-11.102,-28.437,1
-0.90500826,5.957971,7.623737,0.0290161,0.009468411,0.012217305,-9.8,-11.102,-28.437,1
-0.94211835,5.9346275,7.714118,0.0143553335,0.01038471,-0.005497787,-9.8,-11.102,-28.437,1
-0.97743285,5.927445,7.721899,0.027488936,0.008552114,-0.012217305,-9.8,-11.102,-28.437,1
-0.95468795,5.9597664,7.6309195,0.03023783,0.010079277,-0.017104227,-9.8,-11.102,-28.437,1
-0.93373865,5.9184666,7.6967597,0.019547688,0.013439035,-0.015577064,-9.8,-11.102,-28.437,1
-0.9995792,5.943606,7.7087307,0.0106901415,0.017715093,-0.023823744,-9.8,-11.102,-28.437,1
-1.0103531,5.9807158,7.6530657,0.02687807,0.009162978,-0.014049901,-9.8,-11.102,-28.437,1
-0.9911995,5.93762,7.6081743,0.025350908,0.0061086523,-0.0009162979,-9.8,-11.102,-28.437,1
-1.0414777,5.951387,7.7039423,0.00580322,0.013133603,-0.0021380284,-9.8,-11.102,-28.437,1
-0.98940384,5.947197,7.620744,0.022602014,-0.0015271631,-0.003970624,-9.8,-10.794,-28.437,1
-0.943914,5.9322333,7.6231384,0.013133603,0.003970624,-0.0009162979,-9.8,-10.794,-28.437,1
-0.9935937,5.943007,7.6865845,0.0076358155,0.0067195175,-0.0018325958,-9.8,-10.794,-28.437,1
-1.0193313,5.9543796,7.6590514,0.0143553335,0.0067195175,-0.0033597588,-9.8,-10.794,-28.437,1
-0.99060094,5.9280434,7.691373,0.0012217305,0.0036651916,0.006414085,-9.8,-10.794,-28.437,1
-1.0061632,5.935226,7.6973586,0.018936822,0.009468411,-0.0021380284,-9.8,-10.794,-28.437,1
-0.9672575,5.9717374,7.6375036,0.029932396,0.006414085,-0.006414085,-9.8,-10.479,-28.134,1
-0.96785605,5.9304376,7.6650367,0.030848695,0.011301007,-0.020158553,-9.8,-10.479,-28.134,1
-1.0690111,5.951387,7.667431,0.027183503,0.0012217305,-0.020158553,-9.8,-10.797,-28.439,1
-1.0486604,5.9783216,7.687183,0.033292156,0.011911872,-0.008246681,-9.8,-10.797,-28.439,1
-0.96426475,5.943007,7.571663,0.039095376,0.0076358155,0.004886922,-9.8,-10.797,-28.439,1
-1.003769,5.957971,7.687183,0.015882496,0.015882496,-0.01985312,-9.8,-10.797,-28.132,1
-1.073201,5.97892,7.678205,0.03176499,0.01282817,-0.022602014,-9.8,-10.797,-28.132,1
-1.0354922,5.9944825,7.623737,0.04337143,0.009162978,-0.026267206,-9.8,-10.797,-28.132,1
-1.0432734,5.9687448,7.6147585,0.027794369,0.018325957,-0.01038471,-9.8,-10.797,-28.132,1
-1.0402806,6.015432,7.643489,0.02565634,0.014049901,-0.004581489,-9.8,-10.797,-28.132,1
-0.99299514,5.99149,7.510012,0.040317107,0.007330383,0.0009162979,-9.8,-11.1,-28.132,1
-1.0408791,5.952584,7.6009917,0.018020526,-0.0036651916,-0.00061086525,-9.8,-11.1,-28.453,1
-1.0534488,5.9920883,7.5932107,0.028710667,0.007941248,-0.01863139,-9.8,-11.412,-28.453,1
-1.0223241,6.015432,7.553706,0.010995574,-0.0030543262,-0.0143553335,-9.8,-11.412,-28.453,1
-1.0696096,5.9980736,7.687183,0.0106901415,0.013439035,-0.0076358155,-9.8,-11.412,-28.453,1
-1.0301052,5.971139,7.615357,0.026267206,-0.0018325958,0.002443461,-9.8,-11.094,-28.453,1
-0.9959879,5.959168,7.603386,0.02107485,-0.0030543262,-0.009773844,-9.8,-11.094,-28.453,1
-1.049259,5.957971,7.606379,0.0061086523,-0.0018325958,-0.0106901415,-9.8,-11.094,-28.453,1
-0.97743285,5.971139,7.61416,0.0125227375,-0.0012217305,-0.0030543262,-9.8,-10.778,-28.103,1
-0.9923966,5.97892,7.6351094,0.006414085,-0.0015271631,-0.0033597588,-9.8,-10.469,-28.103,1
-1.0360907,5.9268465,7.702147,0.006414085,0.006414085,-0.01740966,-9.8,-10.469,-28.103,1
-1.039682,5.9346275,7.6530657,0.019547688,0.006414085,-0.014966198,-9.8,-10.812,-28.103,1
-1.0378864,5.931635,7.6333137,0.02107485,-0.0021380284,-0.022907447,-9.8,-10.812,-28.103,1
-1.0372878,5.931036,7.6572556,0.007941248,0.004886922,0.0021380284,-9.8,-10.812,-28.103,1
-1.0031705,5.9244523,7.6464815,0.020158553,-0.00061086525,0.0030543262,-9.8,-10.812,-28.103,1
-1.0139444,5.945401,7.606379,0.01985312,0.00061086525,-0.005192355,-9.8,-10.812,-28.103,1
-0.98820674,5.913678,7.6548615,0.016493361,0.014966198,-0.015271631,-9.8,-10.812,-28.103,1
-1.0354922,5.959168,7.4962454,0.02107485,0.019242255,-0.032070424,-9.8,-10.812,-28.103,1
-1.1815386,5.871181,7.730279,-0.02076942,0.047647487,-0.06963864,-9.8,-10.498,-28.103,1
-1.1731589,5.881955,7.759608,0.0033597588,0.00580322,-0.043676864,-9.49,-10.498,-28.103,1
-1.1312603,5.8598084,7.727286,0.01985312,-0.011301007,-0.005497787,-9.49,-10.498,-28.103,1
-1.0606314,5.8262897,7.677606,0.015271631,0.0015271631,0.0027488936,-9.49,-10.498,-28.436,1
-1.0965444,5.852626,7.7428484,0.014049901,0.013439035,-0.0015271631,-9.49,-10.498,-28.436,1
-1.0869676,5.8639984,7.752425,0.013439035,0.016187929,0.004276057,-9.49,-10.498,-28.436,1
-1.0971429,5.866991,7.657854,0.018325957,0.0030543262,-0.008246681,-9.49,-10.498,-28.436,1
-1.067814,5.8586116,7.6985555,0.010995574,0.01740966,-0.005192355,-9.49,-10.804,-28.436,1
-1.0462662,5.819706,7.7350674,0.0009162979,0.014966198,-0.006414085,-9.49,-10.804,-28.436,1
-1.0803835,5.865794,7.77517,-0.004886922,0.008552114,-0.02321288,-9.49,-10.804,-28.436,1
-1.1043255,5.8544216,7.7051396,0.02687807,-0.0018325958,-0.021991149,-9.49,-10.804,-28.436,1
-1.1671734,5.832874,7.743447,0.021991149,0.0036651916,-0.01160644,-9.49,-10.804,-28.436,1
-1.1540052,5.8651958,7.7069354,0.021380283,0.009468411,-0.009162978,-9.49,-10.804,-28.436,1
-1.1133038,5.832874,7.711724,0.013439035,0.005497787,0.0012217305,-9.49,-10.804,-28.436,1
-1.0630256,5.8322754,7.7847466,0.016493361,0.0106901415,-0.0067195175,-9.49,-10.804,-28.436,1
-1.0833763,5.817312,7.751228,0.026572637,-0.004276057,-0.0106901415,-9.49,-10.804,-28.742,1
-1.1510124,5.820903,7.7470384,0.013133603,0.0027488936,-0.019242255,-9.49,-10.804,-28.742,1
-1.1133038,5.825691,7.7189064,0.014049901,0.0036651916,-0.0036651916,-9.49,-10.804,-28.742,1
-1.1091139,5.856816,7.778163,0.010079277,0.0061086523,-0.0009162979,-9.49,-10.804,-28.742,1
-1.1240777,5.805939,7.7230964,0.029932396,0.0036651916,-0.00030543262,-9.49,-10.804,-28.742,1
-1.1324574,5.79337,7.759608,0.025045475,0.015577064,-0.01740966,-9.49,-10.804,-28.742,1
-1.0989386,5.8532248,7.7093296,0.03940081,0.020463986,-0.02443461,-9.49,-10.804,-28.742,1
-1.1569979,5.849035,7.712322,0.03604105,0.0106901415,-0.016493361,-9.49,-10.804,-28.419,1
-1.1456255,5.837064,7.7626004,0.03970624,0.010995574,-0.016493361,-9.49,-10.804,-28.419,1
-1.1713632,5.861604,7.727885,0.03848451,0.01282817,-0.009773844,-9.49,-10.804,-28.419,1
-1.1414356,5.858013,7.6530657,0.048258353,0.017715093,-0.013744468,-9.49,-10.804,-28.419,1
-1.1563994,5.849035,7.789535,0.020158553,0.014966198,-0.004276057,-9.49,-10.804,-28.419,1
-1.1145009,5.901707,7.66384,0.05222898,0.013744468,-0.004276057,-9.49,-10.804,-28.419,1
-1.1911154,5.892729,7.6189485,0.032070424,-0.00061086525,-0.015271631,-9.49,-10.804,-28.419,1
-1.1875241,5.878962,7.663241,0.027183503,0.006414085,-0.017715093,-9.49,-10.804,-28.419,1
-1.2180501,5.905897,7.6811976,0.03573562,0.011301007,-0.010079277,-9.49,-10.804,-28.419,1
-1.1617863,5.9118824,7.551911,0.041233405,0.0061086523,0.0015271631,-9.49,-10.804,-28.419,1
-1.146224,5.8681884,7.619547,0.016798794,0.014049901,0.002443461,-9.49,-10.804,-28.419,1
-1.1881226,5.883152,7.667431,0.025350908,0.0009162979,-0.00061086525,-9.49,-10.804,-28.419,1
-1.1911154,5.9226565,7.547721,0.039095376,-0.0027488936,-0.023823744,-9.49,-10.804,-28.419,1
-1.1839328,5.85502,7.7769656,0.0030543262,0.008246681,-0.011911872,-9.49,-11.105,-28.419,1
-1.13964,5.921459,7.675811,0.032070424,-0.002443461,-0.009468411,-9.49,-10.76,-28.419,1
-1.1731589,5.911284,7.6111674,0.023823744,-0.0061086523,-0.005192355,-9.49,-10.76,-28.074,1
-1.1438298,5.886145,7.66384,0.014660766,0.0012217305,0.007941248,-9.49,-10.76,-28.074,1
-1.168969,5.8544216,7.679402,0.014966198,-0.00061086525,-0.0027488936,-9.49,-11.074,-28.75,1
-1.1306617,5.85921,7.5962033,0.022907447,-0.003970624,-0.0015271631,-9.49,-11.074,-28.75,1
-1.1474211,5.8843493,7.668628,0.0015271631,-0.00061086525,-0.009468411,-9.49,-11.074,-28.75,1
-1.1115081,5.849035,7.7368627,0.003970624,0.015271631,-0.0015271631,-9.49,-11.074,-28.75,1
-1.1306617,5.8741736,7.5932107,0.01160644,0.004581489,-0.0033597588,-9.49,-11.074,-28.75,1
-1.1420342,5.825691,7.762002,0.0070249503,0.009468411,-0.00580322,-9.49,-11.074,-28.75,1
-1.1168951,5.8520274,7.671621,0.016798794,0.013744468,-0.013439035,-9.49,-11.074,-28.75,1
-1.0941502,5.849633,7.739257,0.008857546,0.011301007,-0.005497787,-9.49,-11.074,-28.75,1
-1.0672154,5.8322754,7.7506294,0.010995574,0.007330383,-0.01282817,-9.49,-11.074,-28.75,1
-1.1647792,5.8125234,7.7410526,-0.0018325958,0.0030543262,-0.018936822,-9.49,-10.752,-28.75,1
-1.1204864,5.8143187,7.7787614,0.005497787,0.010995574,-0.0009162979,-9.49,-10.752,-28.75,1
-1.0857705,5.8346696,7.6590514,0.02687807,0.002443461,0.0027488936,-9.49,-10.752,-28.75,1
-1.0851719,5.8203044,7.7386584,0.004581489,0.00580322,-0.012217305,-9.49,-10.752,-28.75,1
-1.1127052,5.819706,7.8266454,-0.005192355,0.015271631,-0.007330383,-9.49,-10.752,-28.45,1
-1.1336545,5.813122,7.778163,0.012217305,0.0027488936,0.009468411,-9.49,-10.453,-28.112,1
-1.1109096,5.786187,7.747637,0.024129177,-0.0018325958,0.00580322,-9.49,-10.148,-28.112,1
-1.1408371,5.8508306,7.753622,0.01985312,0.0076358155,-0.004581489,-9.49,-10.148,-28.112,1
-1.1031284,5.783793,7.7679873,0.018936822,0.014660766,-0.006414085,-9.49,-10.478,-28.422,1
-1.1198878,5.781399,7.7757688,0.011911872,0.01038471,-0.011301007,-9.49,-10.478,-28.422,1
-1.13964,5.825093,7.7584105,0.025350908,0.019547688,-0.01740966,-9.49,-10.478,-28.422,1
-1.1174936,5.7867856,7.702147,0.02107485,0.004886922,-0.003970624,-9.49,-10.478,-28.422,1
-1.1228806,5.7879825,7.801506,0.014049901,0.0143553335,-0.0030543262,-9.49,-10.478,-28.422,1
-1.1354501,5.807735,7.7063365,0.03176499,0.0036651916,-0.014660766,-9.49,-10.478,-28.422,1
-1.1653777,5.805939,7.727286,0.026572637,0.015271631,-0.013439035,-9.49,-10.478,-28.422,1
-1.0857705,5.7574563,7.843405,0.013439035,0.012217305,-0.009162978,-9.49,-10.478,-28.422,1
-1.1127052,5.8149176,7.766192,0.03940081,0.010995574,-0.0018325958,-9.49,-10.478,-28.422,1
-1.1432313,5.8221,7.766192,0.04428773,0.015577064,-0.0076358155,-9.49,-10.478,-28.099,1
-1.1504139,5.810129,7.7332716,0.036957346,0.010079277,-0.0015271631,-9.49,-10.478,-28.414,1
-1.1713632,5.786187,7.7213006,0.034208454,0.014049901,-0.0012217305,-9.49,-10.478,-28.414,1
-1.1641805,5.839458,7.7266874,0.027488936,0.017715093,-0.0033597588,-9.49,-10.478,-28.414,1
-1.0881647,5.8161144,7.7464395,0.035430185,0.0106901415,0.0070249503,-9.49,-10.478,-28.414,1
-1.1115081,5.8304796,7.77936,0.03023783,0.008552114,-0.01863139,-9.49,-10.794,-28.414,1
-1.1504139,5.8358665,7.6680293,0.040011674,0.0106901415,-0.02443461,-9.49,-10.794,-28.414,1
-1.1869255,5.851429,7.732673,0.0290161,0.002443461,-0.012217305,-9.49,-10.794,-28.414,1
-1.1426327,5.823297,7.741651,0.027488936,0.009468411,-0.0076358155,-9.49,-10.794,-28.414,1
-0.14844051,3.268684,9.61272,-0.56291234,0.45051312,-0.9077458,-12.281,-5.558,9.393,1
0.87927055,1.3126211,9.800665,0.21930063,-0.18845193,-0.21991149,-11.882,-6.221,8.689,1
1.3096284,2.4001873,8.897452,0.04062254,-0.77121735,-0.5342017,-12.948,-7.585,10.038,1
-0.17118542,0.5686229,9.979631,-0.47525316,0.18600847,0.031154128,-12.785,-6.431,9.196,1
0.27353755,1.3988123,10.196306,-0.40286562,-0.172264,0.07574729,-13.087,-6.1,9.196,1
0.14425065,2.7012582,8.604761,0.5170974,0.9117164,0.23671028,-12.783,-5.36,8.874,1
0.06284779,2.9406781,9.569026,0.4092797,0.23793201,0.66950834,-12.132,-5.059,8.177,1
1.9387048,4.119224,10.035895,1.4498887,0.0720821,0.91324353,-11.462,-5.802,8.177,1
1.7184383,4.5681367,9.198523,0.25289822,0.3811799,0.16249016,-11.77,-7.638,8.882,1
-2.5803509,2.942474,8.887876,0.49418998,1.3487904,-0.49021935,-10.111,-8.758,9.208,1
-2.5797524,3.3758245,8.12233,0.4166101,1.6395624,-0.5109888,-4.222,-9.501,9.208,1
-3.8612487,3.25372,8.508394,-1.2272283,1.006095,-0.36835176,-0.801,-10.249,8.525,1
-1.1994951,2.3666685,5.667674,-1.2501358,-0.0421497,-0.3857614,-0.302,-7.267,7.369,1
-3.1082723,3.1992521,7.7248917,-1.0668762,0.6160576,-0.5555819,0.103,-3.431,6.04,1
-4.881179,2.1888988,10.778696,-0.711658,1.0396926,-0.799928,2.89,-0.816,4.78,1
-6.9066734,1.2012907,10.453085,0.6270532,1.058324,-0.8979719,7.31,-0.816,4.075,1
-6.5325794,2.8496985,8.122928,0.88514376,-0.3912592,-0.7507534,7.902,-0.48,4.075,1
-6.8127007,0.12928689,12.44087,-0.019547688,0.46303585,-0.044898596,8.522,-1.223,4.441,1
-5.197213,0.6147113,7.2568254,0.99021256,0.7507534,0.40439278,9.535,-1.982,5.18,1
-4.2155905,0.4249708,8.270171,0.2959642,-0.40958515,0.34697145,10.351,-3.547,6.288,1
-3.4614172,0.8996213,7.867347,0.50823987,-0.22418754,0.0070249503,10.699,-4.71,7.019,1
-3.2585084,2.345719,7.3388267,0.28038713,-0.70157874,-0.42577308,10.375,-5.781,7.664,1
-2.6862943,2.6360161,8.9124155,-0.15027285,-0.70066243,-0.5546656,9.26,-6.428,7.664,1
-3.7445314,2.3385365,9.045294,0.22968534,0.027183503,-0.71776664,8.543,-6.428,7.968,1
-4.405331,2.0919337,9.661202,0.24312437,-0.39522982,-0.81031275,8.18,-5.738,7.968,1
-5.336077,1.9740193,9.258977,0.48166725,-0.30298916,-0.7816021,8.18,-5.384,8.28,1
-4.994903,2.0727801,8.133701,0.59040123,-0.5131268,-0.54641896,8.515,-5.384,8.586,1
-3.5805287,2.3175871,7.826047,0.47158796,-0.34422258,-0.36041048,8.515,-5.384,8.892,1
-3.626617,2.9550436,8.838196,0.2843578,-0.28771752,-0.66767573,8.197,-5.731,8.892,1
-5.1379566,2.8281507,9.367314,0.35185838,0.22418754,-0.64996064,8.197,-6.042,8.892,1
-4.6381674,2.7150247,8.289325,0.40042216,-0.20952678,-0.40622538,8.59,-6.042,8.892,1
-4.268862,2.219425,8.689755,0.24648413,-0.2666427,-0.17073683,8.891,-6.042,8.552,1
-3.5458126,2.4349031,7.4986396,0.5128214,-1.2116512,0.13041973,8.483,-6.365,8.236,1
-1.9680338,3.3333273,6.787562,1.0036516,-2.7186558,-0.013133603,3.181,-7.502,8.236,1
-0.2681506,3.2076318,10.623073,0.5012149,-0.99296147,-0.67256266,0.592,-8.807,8.236,1
-1.1402385,4.59986,8.652645,0.5345071,1.0057896,-1.1737776,1.792,-9.75,9.233,1
-1.3640964,6.033987,6.435614,0.21777347,-0.4202753,-1.2055426,3.713,-10.455,10.06,1
-5.497087,5.7496753,6.3362546,-0.25625798,0.99112886,-1.5091426,5.618,-10.455,11.212,1
-5.2582655,3.544017,10.556035,-0.5161811,1.4227052,-0.89552844,8.628,-5.715,11.88,1
-5.33488,2.823961,11.800422,-0.7281514,0.593761,-0.07513642,10.861,-2.798,12.519,1
-6.105813,3.5793316,7.3106947,0.14019357,0.8249735,-0.055283304,11.245,-3.19,12.861,1
-6.3500214,3.369839,7.6704235,-0.054061573,0.009773844,-0.0033597588,12.713,-2.507,12.861,1
-5.6760535,2.5127146,6.9449806,-0.10323623,-0.5647449,-0.14080444,13.063,-2.2,12.861,1
-4.5914803,3.6607344,7.9744873,-0.08735373,-1.5302174,0.04184427,11.952,-2.2,12.165,1
-2.9406781,2.9502552,8.32404,-0.19394971,-0.820392,0.15790866,8.729,-2.2,11.077,1
-2.167351,2.5917234,7.5189905,-0.06658431,-0.5699373,-0.4361578,8.027,-2.2,10.374,1
-4.406528,2.2152352,8.921992,-0.5342017,0.3109304,-0.743423,7.281,-2.2,10.041,1
-4.1683054,2.043451,10.0508585,-0.36102137,0.12156218,-0.50518554,7.281,-0.352,10.041,1
-3.2620997,1.869273,8.693945,-0.26450464,-0.27366763,-0.14660765,8.328,0.747,10.041,1
-4.329315,1.6897079,9.649231,-0.25717425,0.14660765,-0.15363261,8.653,1.794,10.041,1
-4.772841,2.1392193,9.294291,-0.013744468,0.3848451,-0.08368854,8.953,2.474,10.041,1
-4.000711,2.0326772,8.955511,0.1255328,0.23090707,0.20250183,8.953,3.16,10.353,1
-5.0463786,2.079364,9.121908,0.20861048,0.5656612,-0.03756821,8.953,2.47,9.652,1
-5.6987987,1.8177977,8.176199,0.36041048,0.5366451,0.03481932,9.304,-0.141,8.593,1
-3.5631707,2.1272483,8.631097,0.033292156,0.37568212,0.537256,9.973,-1.458,8.273,1
-5.4486046,1.2910733,7.3729444,0.32925636,0.3998113,-0.1740966,9.973,-2.523,8.273,1
-5.7365074,0.30466217,7.889493,0.004886922,-0.14049901,-0.22296582,9.973,-3.192,8.273,1
-0.16101007,8.228272,6.7043633,-0.41325033,-0.38698313,-0.00030543262,-9.301,-13.278,8.273,1
-0.4189853,7.204153,4.677073,0.84879726,0.13103059,0.10262536,-10.459,-16.45,8.616,1
0.025737667,8.15106,3.1944637,0.7330383,-0.2864958,0.59589905,-10.128,-17.285,10.99,1
2.6593595,9.958083,4.099472,-0.25961772,0.00030543262,-0.10720685,-10.49,-17.63,11.65,1
-0.81163436,8.145074,6.0118403,-0.7693848,-0.8378017,-0.6065892,-11.614,-18,12.043,1
0.81163436,7.5225816,5.7029886,-0.3817908,-0.96486163,-0.08460484,-12.648,-17.628,12.043,1
1.0372878,8.78672,5.257667,0.2098322,-0.8155051,-0.5494733,-13.673,-17.315,11.723,1
0.26156655,8.736442,4.88477,0.28802297,-0.9841039,-0.625526,-14.515,-17.315,12.873,1
-0.47345337,8.904634,4.484938,0.6151413,-0.66675943,-0.605062,-15.567,-18.518,15.371,1
-0.6979098,9.227852,3.7463272,1.1774428,-0.50732356,-0.3145956,-15.899,-20.124,18.327,1
-0.19273324,9.639056,1.2042835,0.4352415,-0.73884153,-0.1328632,-16.213,-22.291,22.328,1
-0.45190558,10.461464,0.7954735,0.6429357,-0.22815818,-0.19120082,-16.213,-23.381,23.86,1
-0.65182143,10.813412,2.12246,0.03023783,-0.7199047,-0.15485434,-16.213,-24.4,24.49,1
-0.3716998,10.160992,1.927931,0.14844026,-0.1563815,0.19486602,-15.878,-25.071,25.573,1
0.439336,9.391854,2.4762032,0.005192355,-0.026572637,0.24770586,-16.217,-25.071,26.696,1
0.41299978,9.591172,2.099715,0.49235737,0.06963864,-0.1563815,-16.893,-25.071,27.073,1
0.15143326,8.768166,2.03567,0.35124752,0.028405234,0.106595986,-17.242,-25.071,27.746,1
1.1336545,9.5570545,0.76195467,0.122783914,-0.21960606,0.26542094,-17.964,-25.071,28.947,1
2.0231004,10.177752,1.1546037,-0.29749137,-0.17287487,0.20708331,-20.027,-25.071,30.081,1
1.2485762,9.513959,1.9147629,-0.3494149,0.10781772,-0.2012801,-20.37,-24.438,30.401,1
0.8702923,9.622895,1.541866,-0.28038713,-0.111177474,-0.08307768,-20.37,-24.438,29.609,1
1.0217255,10.102334,1.8549078,-0.25625798,0.07971791,-0.021991149,-20.37,-24.133,28.9,1
0.7906851,9.993997,1.3563153,-0.20341812,0.27550024,-0.01740966,-20.033,-24.133,28.242,1
0.8858546,9.982624,1.6454151,-0.04734206,0.5021312,0.07819075,-19.697,-23.806,27.153,1
1.543063,9.7958765,1.6053122,0.09773844,0.3930918,0.4025602,-19.36,-23.806,26.037,1
2.7802668,9.991004,1.7633295,0.23365596,0.17623462,0.7620544,-19.36,-23.118,25.735,1
3.667917,10.866084,2.166154,0.28191432,0.26236662,0.63346726,-21.353,-22.508,25.43,1
2.4067712,9.542689,2.7012582,0.0106901415,-0.16249016,0.09193522,-22.155,-21.437,25.807,1
0.8738836,9.1829605,3.1082723,-0.007330383,0.3023783,-0.07360926,-23.138,-20.721,26.118,1
2.2756886,9.163208,2.3612814,-0.204029,0.39400807,0.20922135,-23.448,-20.721,26.118,1
2.8933928,9.119514,3.9456444,-0.52381694,0.23548855,-0.2666427,-23.789,-20.387,25.309,1
3.0789435,9.595362,3.6475663,-0.14782938,-0.0009162979,-0.61117065,-23.789,-20.077,24.67,1
1.2372037,8.819042,3.4979286,0.39584067,-0.301462,0.052839845,-23.135,-20.077,23.5,1
1.8902222,8.978256,2.043451,0.76052725,-0.72601336,0.47555858,-23.135,-20.416,24.426,1
3.3662477,9.4696665,0.16879122,1.1267409,-1.1954633,0.13225232,-23.515,-20.741,31.045,1
3.0843303,10.140641,-1.1354501,-0.49632803,-1.2754866,-0.1386664,-24.549,-20.741,34.719,1
3.080739,9.475652,0.7517793,-0.070249505,-0.96974856,0.21410827,-24.879,-20.741,34.719,1
2.765303,9.780912,-0.59017074,-0.40439278,-0.57910025,0.28588495,-25.531,-20.741,35.423,1
3.8019924,11.217434,1.3964181,-1.3658947,-0.72387534,-0.116980694,-26.295,-20.368,36.126,1
1.8142064,10.387244,2.0853498,-1.2776246,-0.27030787,-0.23915374,-26.657,-20.368,36.126,1
1.9925743,8.3312235,3.3584664,-1.108415,0.37812558,-0.5357288,-26.657,-20.368,31.01,1
1.5705963,7.5082164,2.6354175,-2.119397,-0.42332962,-2.3649647,-24.716,-20.71,27.52,1
0.7823054,6.6534867,3.8013937,-1.9068159,-0.62980205,-1.9593502,-18.373,-21.855,21.824,1
2.0242975,7.499837,-1.0510546,-3.517973,-0.9602802,-1.2131784,-16.816,-22.47,16.517,1
-5.168483,1.4359225,6.206968,-4.1847324,0.57451874,0.5180137,-16.987,-13.421,8.248,1
-3.7924154,-18.666393,19.608511,-0.7076874,2.1346686,2.3246477,-16.345,-4.452,3.193,1
3.3411086,-0.53689975,14.240712,6.7680817,-2.2770002,0.24648413,-16.345,-16.2,11.203,1
1.4502877,2.4211364,-8.99322,6.0536747,1.2770138,1.5418239,-18.241,-24.263,26.063,1
2.3349452,8.212111,-3.0023289,-0.15057829,0.40286562,-0.11362094,-19.177,-24.978,31.582,1
0.38367084,9.925761,2.508525,-0.66920286,-0.96883225,-0.4016439,-19.929,-25.054,30.561,1
0.56682724,11.080964,5.46297,0.28069258,-1.2632693,-0.041233405,-19.929,-25.354,31.259,1
1.0905589,10.910975,4.0378213,1.525636,0.32711834,-0.4392121,-19.929,-25.663,33.798,1
2.5785553,9.928156,-2.4624364,2.5809057,1.094976,-0.70952,-19.282,-26.026,39.562,1
4.8338933,8.029554,-4.8201265,1.5919148,3.3802228,-0.061391957,-18.151,-26.374,41.743,1
-1.3455414,8.702325,-5.6030307,1.817935,5.4195967,0.22052236,-18.151,-26.374,39.552,1
4.6417584,7.992444,1.9015948,-2.1337523,-6.637967,0.044898596,-19.363,-26.025,40.467,1
-16.24825,-1.4957775,5.029021,-0.64873886,-0.65148777,-0.2434298,-19.7,-25.724,43.321,1
-2.8491,6.7761893,6.76362,-0.7104363,0.17592919,-0.19394971,-18.803,-25.724,45.935,1
0.65780693,9.366715,-1.8722657,-1.087951,-0.44959682,-0.38056904,-17.456,-25.724,46.424,1
-0.16340427,12.261904,-15.275605,0.52503866,-3.2922583,-0.19639318,-16.302,-26.045,48.164,1
2.3145945,9.83957,-4.1018662,-1.8811595,-3.1050282,-1.1624765,-13.201,-26.698,46.47,1
-0.62368953,8.164826,2.6001031,-3.1077769,-3.7290268,-4.128533,1.316,-31.228,37.821,1
-4.233547,7.890092,2.1942859,-1.357648,-1.3118331,-3.4016032,12.309,-30.224,30.967,1
-4.0096893,4.0037036,8.182184,-2.2198844,-0.8002335,-5.247027,24.935,-20.802,20.855,1
-5.9442043,-1.8698715,8.416816,0.20097467,0.79168135,-5.275432,36.059,-4.817,19.081,1
-7.462128,-4.295198,5.6347537,0.7104363,1.5656476,-1.3658947,38.803,4.01,21.644,1
-7.814076,-2.4833858,5.009867,0.21930063,0.7825184,-0.76174897,38.803,5.664,25.318,1
-7.98586,-1.2844892,5.229535,0.32436943,0.056199603,-0.55955255,39.468,6.028,26.391,1
-8.159439,-2.043451,5.9118824,0.5910121,0.21288654,-0.86406887,39.773,7.272,26.303,1
-10.166379,-3.1866825,6.4260373,0.56016344,0.005192355,0.17073683,39.773,9.26,27.023,1
-13.388974,-4.435259,7.1341224,1.6203201,-1.2794572,5.6220984,39.773,1.429,27.023,1
-0.50038815,-1.9835961,2.144606,2.568383,-3.1456506,8.92413,21.76,-32.107,-10.131,1
6.1782374,9.405622,5.5671177,2.2629502,-1.2965615,4.8820353,-0.868,-40.466,-4.266,1
4.258686,8.137293,2.920926,1.50731,1.0033462,1.9865338,-10.153,-38.844,3.324,1
4.2102036,10.081385,3.0238767,0.59223384,0.33536503,0.8393288,-13.534,-39.306,4.719,1
4.168904,9.328408,3.9258924,-0.26175576,-0.13836098,0.5332854,-15.893,-38.218,4.798,1
4.991312,7.837419,3.4063504,0.20677789,0.028710667,-0.7651087,-19.319,-36.676,5.105,1
5.4312468,7.379528,4.055179,-0.5564982,0.26297748,0.2864958,-21.235,-35.916,4.721,1
5.4085016,6.67683,5.3115363,-0.18692477,0.27977628,0.33169982,-21.522,-35.299,2.745,1
5.3402667,7.1059904,4.5872903,-0.40530908,0.67347896,0.6047566,-22.935,-34.576,1.683,1
7.2747817,7.216124,6.628946,-0.39064834,0.37507126,0.003970624,-24.807,-33.909,0.169,1
5.2008047,6.341043,6.8719573,0.3378085,1.185384,-0.47647488,-25.138,-33.576,-2.796,1
3.6649241,6.8384385,5.961562,0.51893,1.6685784,-0.64996064,-24.238,-33.576,-3.904,1
2.4612393,7.043143,5.9424086,0.73426,1.1261301,-0.8756753,-22.753,-34.628,-4.721,1
1.4532804,7.85777,5.2265425,0.8558222,0.9266826,-0.19486602,-18.206,-35.798,-5.087,1
0.9427169,8.618527,4.7722425,0.49938235,0.4016439,-0.19853121,-16.859,-36.573,-4.682,1
1.1611878,10.554239,5.245097,-0.14294247,0.029626964,-0.24495697,-16.47,-37.191,-3.652,1
0.8265981,8.057686,5.4258595,-0.67164636,0.59131753,0.12705997,-15.768,-37.496,-3.652,1
0.5746084,7.5602903,5.7484784,-0.44715336,0.53023106,0.13255776,-15.768,-37.496,-7.112,1
1.216853,7.8344264,6.453571,-0.42241332,0.18081611,0.06505715,-15.768,-37.158,-8.114,1
1.34195,7.7877398,6.693589,-0.27214047,-0.16065755,0.042455133,-16.087,-36.827,-9.184,1
1.9752164,7.304111,6.76362,-0.04520403,0.024129177,0.21563543,-17.073,-36.123,-10.412,1
1.520318,7.167641,6.697779,-0.43768495,-0.116675265,-0.047647487,-17.802,-35.783,-11.045,1
2.099715,7.2885485,6.841431,-0.24770586,-0.33414328,-0.19975294,-18.493,-35.462,-11.68,1
1.6484078,6.8749504,7.1059904,-0.024740042,-0.3286455,-0.13561209,-18.493,-35.462,-12.367,1
1.1833342,7.3106947,6.973711,0.109650314,-0.3268129,-0.2657264,-18.493,-35.462,-12.666,1
1.4377182,7.1712327,6.497265,-0.09315695,-0.23884831,-0.26389378,-18.157,-35.462,-12.329,1
1.4945804,7.1221514,6.423643,0.009162978,-0.040317107,-0.089186326,-18.157,-35.462,-11.645,1
1.079785,7.442376,6.851607,-0.13500121,0.16462818,-0.04184427,-17.82,-35.769,-11.645,1
0.88286185,7.7224975,7.097611,0.08155051,0.40530908,0.105068825,-17.16,-35.769,-11.645,1
0.694917,7.567473,6.6893997,0.14172074,0.66798115,0.27091873,-17.16,-35.769,-11.95,1
1.1336545,7.8009076,7.007828,0.06536258,0.49846604,0.22113322,-17.16,-35.769,-12.594,1
1.027711,7.313089,7.5602903,0.28893927,0.49296826,0.22876903,-17.466,-35.769,-12.936,1
0.89303726,6.5577183,7.501034,0.13164146,0.43799037,-0.10170906,-17.787,-35.769,-12.936,1
0.24899697,6.7809777,6.6588736,0.1386664,0.7281514,0.27916542,-18.087,-35.769,-12.936,1
0.866701,6.6079965,7.425018,0.08979719,0.47158796,0.45937067,-18.395,-35.769,-12.936,1
1.216853,6.7504516,6.968324,0.13683382,0.4538729,0.40500367,-18.745,-35.769,-13.604,1
1.2437878,6.3847375,7.0730705,0.105068825,0.27672195,0.39522982,-19.54,-35.45,-13.604,1
1.8267759,7.3029137,6.9126587,-0.3210097,-0.00030543262,0.0067195175,-20.291,-35.148,-13.912,1
1.1611878,6.9689226,7.77517,-0.61911196,-0.32528573,-0.42302418,-20.921,-34.501,-14.237,1
0.55844754,6.3643866,7.056311,0.17348573,-0.33964106,-0.3203988,-20.921,-34.194,-14.985,1
0.46387658,6.4386067,6.7223196,-0.36010507,-0.4251622,-0.3454443,-20.608,-34.194,-14.985,1
1.5316905,6.995259,8.198944,-0.10629055,-0.18203785,-0.57604593,-19.56,-34.536,-14.985,1
0.19393034,6.703765,8.492233,0.26389378,0.12705997,-0.7315111,-18.4,-34.858,-15.303,1
-0.80684596,7.2065473,6.415862,0.25228736,0.17959438,-0.48441613,-14.99,-35.847,-15.303,1
0.14185645,7.6524673,6.432023,0.16615535,-0.086437434,-0.5045747,-13.363,-36.611,-14.605,1
0.18614918,7.854179,6.643311,-0.009468411,-0.2846632,-0.5448918,-12.593,-37.641,-13.967,1
-0.20709845,7.3777328,6.9024835,0.25900686,-0.5305365,-0.48288897,-11.326,-37.957,-13.635,1
-0.25797522,8.021772,7.0874357,0.50885075,-0.72601336,-0.6270532,-10.14,-38.638,-12.673,1
-1.2156559,7.711724,7.627328,0.57543504,-0.86101454,-0.58062744,-8.616,-39.317,-11.199,1
-0.86849666,7.86196,6.1195793,0.59131753,-0.8304713,-0.04062254,-7.56,-39.999,-8.712,1
0.42317516,8.773552,6.2674217,0.014049901,-1.2092078,-0.046120327,-6.46,-39.999,-6.088,1
1.5101427,6.681618,5.33488,-0.086132,-1.3026701,0.22204952,-6.46,-39.999,-5.751,1
-0.736217,7.1460934,5.957971,-0.5983425,-0.63713247,-0.5907067,-6.781,-39.297,-4.69,1
1.6178818,6.217143,7.515998,0.82833326,-0.9560041,0.3359759,-7.116,-39.297,-4.69,1
1.292869,6.4128695,5.1601033,0.57635134,0.8173377,0.09193522,-7.881,-39.297,-4.333,1
2.5504234,8.051701,7.217321,-0.07941248,-0.11911872,-0.61422503,-8.235,-39.297,-3.414,1
2.3511062,7.890092,4.7518916,0.464563,0.12858713,-0.03390302,-7.835,-39.297,-2.319,1
3.0041246,8.128913,4.6375685,0.0870483,-0.101098195,-0.12583824,-7.508,-39.297,-1.963,1
1.8626889,8.494029,4.882974,-0.27030787,-0.0009162979,-0.4792238,-7.188,-39.297,-1.359,1
1.7100586,8.352771,5.2899885,-0.40439278,-0.073303826,-0.2929099,-6.831,-39.297,-1.359,1
1.9195513,8.025364,5.3857565,-0.2519819,-0.09040806,-0.21013765,-5.375,-39.297,-2.523,1
1.5574282,8.318055,5.765238,-0.35002577,-0.02076942,-0.27763826,-4.647,-39.297,-3.59,1
1.5897499,8.057087,6.555923,-0.24801129,0.21074851,-0.048563786,-3.654,-39.297,-4.925,1
1.3036429,8.602366,6.869563,0.03970624,0.5842926,0.073303826,-3.352,-39.297,-6.092,1
1.5813702,8.655039,6.4140663,0.13347405,0.28710666,0.01863139,-3.039,-39.297,-6.733,1
0.6051345,6.845621,7.4232225,0.28863382,-0.59986967,-0.30298916,-2.687,-39.297,-6.733,1
-0.6751649,6.2422824,6.23091,0.3857614,0.20769419,-0.14721853,-2.687,-39.297,-6.427,1
1.043872,8.430583,5.916671,0.052839845,0.6243043,-0.019547688,-2.381,-39.297,-5.618,1
0.2789245,8.854357,6.1447186,0.086437434,1.0201449,-0.004886922,-1.675,-39.297,-4.487,1
1.2126632,7.253833,6.8569937,0.076052725,-0.087659165,0.10903945,-1.332,-39.598,-4.182,1
0.7954735,7.743447,4.959589,0.2764165,-0.4792238,-0.68691796,-1.332,-39.598,-3.851,1
0.14963761,8.543709,4.9506106,-0.06383542,-0.81581056,-0.8014552,0.306,-39.598,-3.498,1
-0.10474633,8.383297,5.73531,-0.098043874,-0.8304713,-0.6753115,3.602,-39.598,-3.178,1
-0.05805939,8.359954,5.5641246,-0.042760566,-0.80939645,-0.61208695,5.094,-39.598,-3.54,1
-0.24779987,8.522759,6.10282,-0.06719518,-0.7431176,-0.75411314,6.504,-39.282,-4.254,1
-0.5626374,8.04392,6.3009405,0.13041973,-0.71868294,-0.6093381,8.909,-38.618,-4.887,1
-0.3393781,9.655217,5.6185927,0.43127087,-1.0259482,-0.86926126,10.626,-38.258,-5.549,1
-2.7856536,7.00723,6.4763155,0.04337143,-0.91874135,-0.19272798,11.685,-37.579,-5.857,1
0.23582886,7.4627266,4.733337,0.28008172,-0.23273966,0.25809056,12.744,-36.935,-5.857,1
