ax,ay,az,gx,gy,gz,mx,my,mz,user
-0.7038953,5.6341553,6.9383965,-0.040927973,-0.74097955,-0.33292156,-15.348,21.762,-30.09,1
-0.7661445,5.4138885,7.6650367,-0.04520403,-0.18203785,-0.38606682,-16.056,24.259,-31.228,1
-0.712275,5.4408236,7.2268977,-0.047036625,-0.27000242,-0.267559,-16.421,24.243,-31.933,1
-0.6183026,5.3342814,7.4681134,-0.098043874,-0.04520403,-0.021380283,-16.743,24.243,-32.037,1
-0.694917,5.333084,7.293337,-0.018936822,-0.028405234,-0.023518313,-16.743,24.545,-31.689,1
-0.6751649,5.3007627,7.453748,-0.090713486,-0.022602014,-0.02076942,-16.743,24.862,-31.689,1
-0.6799533,5.2606597,7.6255326,-0.062002823,-0.021991149,0.0021380284,-16.743,24.862,-31.689,1
-0.53929394,5.187038,7.6943655,-0.040317107,-0.042760566,0.009162978,-16.743,24.862,-31.689,1
-0.57161564,5.225345,7.4058642,-0.0143553335,-0.017715093,-0.02443461,-16.743,24.862,-31.689,1
-0.53330845,5.1798553,7.4968443,-0.040317107,-0.041233405,-0.02107485,-16.743,24.862,-31.994,1
-0.62368953,5.1421466,7.52737,-0.04734206,-0.032070424,-0.03848451,-16.743,24.862,-31.994,1
-0.50278234,5.064934,7.463325,-0.014049901,-0.038179077,-0.011301007,-16.421,24.862,-31.692,1
-0.5907693,5.1319714,7.5950065,-0.020463986,-0.015271631,-0.028405234,-16.421,25.177,-31.692,1
-0.60812724,5.144541,7.679402,-0.03268129,-0.022907447,-0.027794369,-16.421,25.177,-31.692,1
-0.7236475,5.1277814,7.422025,0.041233405,0.0033597588,-0.021380283,-16.421,25.177,-31.692,1
-0.46686932,5.1547165,7.447763,0.030848695,-0.01282817,-0.010995574,-16.722,25.177,-31.692,1
-0.5602432,5.1642933,7.4848733,0.03481932,0.006414085,-0.01985312,-16.722,25.177,-31.692,1
-0.57281274,5.2205567,7.4028716,0.03176499,-0.009162978,-0.021991149,-16.415,25.177,-31.692,1
-0.5662287,5.242703,7.1341224,0.030848695,-0.0070249503,-0.042455133,-16.415,25.177,-31.692,1
-0.6859388,5.2301335,7.551911,-0.079107046,-0.010995574,-0.04795292,-16.415,25.177,-31.692,1
-0.56682724,5.0960584,7.3699512,-0.034208454,0.0009162979,-0.04184427,-16.087,25.177,-31.692,1
-0.7230489,5.047576,7.57286,-0.061391957,-0.0012217305,-0.04550946,-16.087,25.177,-31.692,1
-0.66259533,4.9984946,7.7230964,-0.07147124,-0.015271631,-0.040317107,-16.087,25.491,-31.692,1
-0.6793547,4.9787426,7.7488337,-0.06169739,-0.03970624,-0.05131268,-16.087,25.491,-31.692,1
-0.7038953,5.0134583,7.8027034,-0.06505715,-0.0290161,-0.032070424,-16.087,25.804,-32.025,1
-0.6398504,5.0080714,7.641693,-0.023518313,-0.034513887,-0.04153884,-16.087,25.804,-32.025,1
-0.7942764,4.9919105,7.726089,0.007330383,-0.016187929,-0.06505715,-16.087,25.804,-32.025,1
-0.7272388,5.0014873,7.5854297,0.016187929,-0.025045475,-0.03726278,-16.087,25.804,-32.025,1
-0.8086416,5.023035,7.454347,0.03145956,0.003970624,-0.043982297,-16.087,25.804,-32.025,1
-0.6619968,5.044583,7.4471645,0.018936822,-0.010995574,-0.032070424,-16.087,25.804,-32.025,1
-0.8158242,5.0332108,7.523779,0.0030543262,-0.004276057,-0.03940081,-16.087,25.804,-32.025,1
-0.7374141,5.0200424,7.6105685,-0.003970624,-0.043676864,-0.025045475,-16.087,25.804,-32.025,1
-0.74639237,4.9625816,7.513005,0.01282817,-0.03359759,-0.01282817,-16.087,25.804,-32.025,1
-0.75357497,4.993706,7.602189,-0.03481932,-0.016187929,-0.006414085,-16.087,25.804,-32.025,1
-0.7266402,5.0882773,7.3819222,0.0106901415,-0.03634648,-0.009162978,-16.087,25.804,-32.025,1
-0.6697779,5.047576,7.7159133,-0.031154128,-0.046120327,0.0076358155,-16.087,25.804,-32.025,1
-0.7110779,5.031415,7.6650367,-0.0076358155,-0.057726767,-0.010079277,-16.087,25.804,-32.025,1
-0.6314707,4.976947,7.5285673,0.009773844,-0.018936822,0.0061086523,-16.087,25.804,-32.025,1
-0.700304,4.92607,7.6494746,-0.016187929,-0.055283304,-0.03634648,-16.087,25.804,-32.025,1
-0.6691794,4.993108,7.6410947,-0.009468411,-0.030848695,-0.036957346,-16.087,25.804,-32.025,1
-0.4973954,5.0200424,7.4932528,0.009162978,-0.057421334,-0.016187929,-16.087,25.804,-32.025,1
-0.62847793,4.981137,7.630321,0.009773844,-0.06169739,-0.041233405,-16.387,25.804,-32.344,1
-0.717662,4.9853263,7.450157,-0.002443461,-0.029626964,-0.052534413,-16.387,25.804,-32.344,1
-0.4770447,4.7560816,7.633912,-0.02321288,-0.022296581,-0.049480084,-16.387,25.804,-32.344,1
-0.12928689,4.402937,7.515998,-0.07513642,-0.07574729,-0.07849618,-16.387,25.804,-32.344,1
-0.5303157,4.8320975,7.565677,-0.14813483,-0.12308934,-0.098043874,-16.387,25.804,-32.029,1
-0.7811083,4.981735,7.693767,-0.19333886,-0.07544186,-0.009773844,-16.387,26.133,-32.029,1
-0.7212533,4.9266686,7.671621,-0.102319926,0.024129177,-0.016493361,-16.688,26.458,-32.029,1
-0.50038815,4.758476,7.9702973,-0.09254608,0.0067195175,-0.023823744,-16.688,26.785,-32.029,1
-0.7230489,4.6621094,8.049905,0.006414085,0.006414085,-0.0870483,-16.688,27.085,-32.029,1
-0.6745663,4.4544125,7.8966756,0.048563786,0.052839845,-0.038789943,-16.688,27.392,-32.029,1
-0.7493851,4.5567646,7.5243773,0.10354166,0.1563815,-0.06566802,-16.688,27.392,-32.029,1
-0.8230068,4.6740804,7.505822,0.015271631,0.017715093,-0.044593163,-16.688,27.392,-32.029,1
-0.8319851,4.646547,7.785944,0.009162978,0.010995574,-0.033292156,-16.688,27.392,-32.029,1
-0.94930094,4.6806645,7.542334,0.0143553335,-0.0018325958,-0.046731193,-16.688,27.392,-32.029,1
-0.8690952,4.5364137,7.6452847,-0.034208454,-0.06994407,-0.062002823,-16.386,27.088,-32.029,1
-0.86610246,4.5723267,7.179612,-0.15088372,-0.093767814,-0.027794369,-16.386,27.088,-32.029,1
-1.0516531,3.9863458,7.6387005,-0.46089783,-0.2556471,-0.036651913,-16.386,27.392,-32.029,1
-0.8499416,3.882198,9.849746,-0.46792278,0.09315695,0.12705997,-16.386,28.092,-32.029,1
0.008978256,3.915717,8.550293,-0.098043874,0.18936823,0.23701571,-16.386,28.845,-32.029,1
-0.89902276,3.6715083,8.693945,-0.09865474,-0.007941248,-0.06352998,-16.386,29.164,-32.029,1
-0.6775591,3.7181952,8.455123,0.062308256,-0.04917465,-0.089491755,-16.386,29.522,-32.341,1
-0.88765025,3.7301662,8.224682,0.020463986,-0.06780604,-0.10445796,-16.386,29.522,-32.341,1
-0.7870938,3.6475663,8.361151,0.043066,-0.06169739,-0.087964594,-16.386,29.522,-32.341,1
-0.6973112,3.6272156,8.55149,0.053450707,-0.042760566,-0.09010262,-16.386,29.522,-32.341,1
-1.1444284,4.028843,8.303091,0.0720821,-0.036957346,-0.064751714,-16.386,29.522,-31.958,1
-0.6757634,4.0539823,8.010999,0.09621128,-0.06383542,0.0421497,-16.386,29.522,-31.958,1
-0.6811504,4.0402155,7.925406,0.05497787,-0.050701816,0.04550946,-16.386,29.211,-31.958,1
-0.6183026,4.0360255,7.8595657,0.029321533,-0.025350908,-0.006414085,-16.386,29.211,-31.958,1
-0.5590461,4.022857,8.020576,0.005192355,-0.07391469,-0.008552114,-16.386,28.895,-31.958,1
-0.7200562,4.0880995,8.0445175,0.0033597588,-0.013744468,-0.052534413,-16.69,28.895,-32.302,1
-0.6410475,4.0695443,7.9343843,0.007330383,-0.032986723,-0.045814894,-16.69,28.895,-32.302,1
-0.6314707,4.1222167,8.166023,-0.025045475,-0.019547688,-0.02321288,-16.69,28.895,-31.936,1
-0.75357497,4.0677485,8.028955,0.053145275,0.059864793,0.0067195175,-16.69,28.895,-31.936,1
-0.70509243,4.088698,7.967903,0.115453534,0.11453723,0.016798794,-16.69,28.895,-32.257,1
-0.8631097,4.040814,8.294712,0.042455133,0.049785517,0.0061086523,-16.369,28.59,-32.257,1
-0.74519527,4.1623197,8.534731,0.13897185,0.1563815,-0.005192355,-16.062,28.59,-31.944,1
-0.85413146,4.519056,6.9467764,0.14905111,-0.0018325958,0.06658431,-15.76,28.59,-31.642,1
-0.6967127,4.1533413,8.254609,-0.12156218,-0.20586158,0.061086524,-15.76,28.59,-31.642,1
-0.50397944,3.9270895,8.523358,-0.122783914,-0.1282817,0.0125227375,-16.098,28.59,-31.642,1
-1.0235212,3.9079356,8.166023,-0.05681047,-0.08735373,-0.03023783,-16.754,28.904,-31.951,1
-0.8367735,4.073136,7.639898,-0.04886922,-0.080634214,-0.017715093,-16.754,28.904,-32.26,1
-0.7188591,4.092888,8.2354555,-0.10140363,-0.054367006,-0.021380283,-16.754,29.216,-31.929,1
-0.8798691,3.9205053,8.46889,-0.06169739,-0.026572637,-0.003970624,-16.754,29.216,-31.623,1
-0.6596026,3.7732618,8.3408,-0.022602014,-0.058948494,0.019242255,-16.754,29.216,-31.623,1
-0.55485624,3.731962,8.527548,-0.06291912,-0.051618114,0.011911872,-16.754,29.216,-31.623,1
-0.5823896,3.7720647,8.224083,-0.014049901,0.017715093,0.0106901415,-16.452,29.216,-31.623,1
-0.6991069,3.8833952,7.9511437,-0.018020526,0.0036651916,-0.029932396,-16.452,29.216,-31.623,1
-0.5662287,3.8265328,8.252214,-0.028099801,-0.05222898,0.0033597588,-16.146,29.216,-31.623,1
-0.7667431,3.8175547,8.385093,-0.026572637,-0.027183503,-0.01985312,-16.146,29.216,-31.623,1
-0.7404069,3.8612487,8.070854,0.018020526,-0.017104227,-0.017104227,-16.146,29.216,-31.623,1
-0.79726917,3.8630445,7.980473,0.029932396,-0.006414085,-0.009468411,-16.146,29.216,-31.623,1
-0.6985083,3.8534677,8.036138,0.00580322,0.002443461,0.01282817,-16.146,29.216,-31.623,1
-0.7368156,3.8989575,7.797915,-0.024129177,0.00061086525,-0.006414085,-16.146,29.216,-31.623,1
-0.6679823,3.863643,7.835025,-0.07147124,0.027488936,0.036957346,-16.146,29.216,-31.623,1
-0.85891986,3.7235823,8.385692,-0.22937989,-0.0015271631,-0.010995574,-16.146,29.534,-31.623,1
-0.81402856,3.3608606,8.868123,-0.20250183,0.0015271631,0.014049901,-16.146,29.866,-31.623,1
-0.7613561,3.1884782,8.948329,-0.14752395,0.02443461,0.04886922,-16.146,30.201,-31.623,1
-0.9463082,3.2345665,8.599973,-0.043066,-0.028099801,0.016187929,-16.146,30.525,-31.623,1
-0.5626374,3.3010056,8.079233,0.06536258,-0.029932396,0.027488936,-15.84,30.525,-31.623,1
-0.712275,3.1196449,8.322245,-0.054367006,-0.064751714,0.007330383,-15.84,30.525,-31.623,1
-0.55605334,3.4003649,8.123527,0.009773844,0.017715093,-0.018936822,-15.84,30.525,-31.623,1
-0.6159084,3.3452983,8.645462,-0.040011674,-0.010995574,-0.029932396,-15.84,30.525,-31.623,1
-0.80086046,3.2495303,8.568848,-0.059253927,-0.028405234,-0.027183503,-15.84,30.83,-31.623,1
-0.90261406,3.0843303,8.409634,-0.08582657,0.06383542,-0.007941248,-15.84,30.83,-31.623,1
-0.93972415,3.05141,8.857349,-0.08979719,0.0870483,-0.012217305,-15.84,30.83,-31.623,1
-0.93493575,3.2184057,8.363545,0.06505715,0.06169739,-0.035124753,-15.538,30.83,-31.623,1
-0.85293436,3.304597,8.251018,0.08552113,0.062002823,-0.017104227,-15.538,30.83,-31.933,1
-1.1456255,3.5661635,6.7606273,0.053145275,-0.021380283,-0.0070249503,-15.538,30.83,-31.933,1
-1.0869676,3.139397,9.134478,-0.044593163,0.172264,-0.042760566,-15.538,30.83,-31.602,1
-0.6757634,3.333926,8.348581,0.06505715,-0.030848695,-0.009468411,-15.538,31.146,-31.602,1
-0.7858967,3.1908724,8.325238,0.04520403,-0.047647487,-0.028710667,-15.538,31.146,-31.602,1
-1.0372878,3.1872811,8.268974,0.061086524,-0.037873644,-0.035124753,-15.538,31.146,-31.602,1
-0.79726917,3.2722752,8.331821,0.018325957,-0.021991149,-0.043676864,-15.538,31.146,-31.602,1
-1.2856863,3.084929,9.774328,-0.2910773,0.02321288,-0.090713486,-15.538,31.146,-31.602,1
-0.66858083,3.3542767,8.389283,-0.008857546,-0.11789699,-0.0015271631,-15.538,31.146,-31.602,1
-0.83976626,3.1705215,8.656237,0.02076942,-0.063224554,-0.025961773,-15.852,31.146,-31.602,1
-1.1264719,3.1866825,8.439561,0.017104227,-0.055588737,-0.06352998,-15.852,31.146,-31.602,1
-0.7565677,3.2465374,8.521563,0.014049901,-0.08032878,-0.010079277,-15.852,31.146,-31.602,1
-0.7212533,3.2986114,8.356362,-0.03268129,0.33475417,0.047647487,-15.852,31.146,-31.602,1
-0.93613285,3.390788,8.515577,0.016187929,0.016493361,-0.056199603,-15.852,31.146,-31.602,1
-0.84694886,3.2184057,8.572439,0.024129177,-0.03359759,-0.005192355,-15.852,31.146,-31.602,1
-1.0061632,3.3638535,8.112753,0.03604105,0.004276057,-0.032375857,-15.852,31.146,-31.602,1
-0.78769237,3.4093432,7.969699,0.055283304,0.03848451,-0.022602014,-15.852,30.825,-31.602,1
-1.0133458,3.333926,8.447941,-0.019242255,-0.03481932,-0.058948494,-15.548,30.825,-31.602,1
-0.94092125,3.3411086,8.781333,-0.029932396,-0.06291912,-0.03023783,-15.548,30.825,-31.602,1
-0.9151836,3.352481,8.276156,0.087659165,0.03756821,-0.033292156,-15.548,30.825,-31.602,1
-1.1330559,3.7708676,6.4583592,0.04795292,-0.07727446,-0.03176499,-15.548,30.825,-31.602,1
-0.9911995,3.4608185,8.246828,-0.0036651916,0.002443461,-0.029626964,-15.548,30.825,-31.602,1
-1.0755951,3.316568,8.807071,-0.09193522,-0.055283304,-0.032986723,-15.548,30.825,-31.602,1
-1.003769,3.3500867,8.146272,-0.004276057,-0.05131268,-0.05222898,-15.858,30.825,-31.602,1
-0.5710171,3.378817,8.362348,-0.018936822,-0.061086524,0.0036651916,-15.858,30.825,-31.602,1
-1.0097545,3.3638535,8.201338,0.067500606,-0.015271631,-0.05467244,-15.858,30.825,-31.602,1
-0.87807345,3.2890346,8.32045,-0.022907447,-0.032070424,-0.05589417,-15.858,30.825,-31.289,1
-0.9283517,3.3249476,8.256405,0.03940081,0.017715093,-0.036651913,-15.858,30.825,-31.289,1
-0.7266402,3.3117795,8.413225,0.03634648,0.030848695,-0.014660766,-15.858,30.825,-31.289,1
-0.98820674,3.5715504,7.9116397,0.16126843,0.13072516,-0.04886922,-15.557,30.825,-31.289,1
-1.039682,3.4446578,8.595782,0.17134771,0.13194689,-0.0125227375,-15.557,30.516,-31.289,1
-0.8948329,3.5577838,9.178172,-0.009773844,-0.17531833,-0.046120327,-15.234,30.168,-31.289,1
-1.3479356,3.5769374,8.585608,-0.09162979,0.02076942,-0.04062254,-15.234,30.168,-31.289,1
-1.2533646,3.503914,8.409035,-0.009468411,-0.0036651916,-0.030543262,-15.234,30.168,-31.289,1
-1.1593921,3.4201171,8.161834,-0.043066,-0.08307768,-0.034513887,-15.234,30.168,-31.6,1
-0.8984242,3.6152446,7.8308353,0.0027488936,-0.0106901415,0.0067195175,-15.234,30.168,-31.6,1
-1.0887632,3.517681,8.033744,-0.14355333,-0.115453534,-0.04734206,-15.234,30.168,-31.6,1
-0.8678981,3.1974564,8.6017685,-0.115453534,-0.07269296,0.016493361,-15.234,30.47,-31.6,1
-0.9295488,3.12982,8.379107,-0.051618114,-0.04337143,-0.025961773,-15.557,30.799,-31.6,1
-0.81522566,3.1082723,8.280347,-0.0061086523,-0.025961773,-0.010079277,-15.557,30.799,-31.6,1
-0.9008184,3.128623,8.721478,0.00580322,-0.07147124,-0.0106901415,-15.557,31.105,-31.6,1
-0.92535895,3.1381998,8.60117,0.05375614,-0.022296581,-0.021991149,-15.557,31.105,-31.6,1
-0.8948329,3.221997,8.198345,0.0018325958,-0.004886922,-0.04886922,-15.557,31.105,-31.6,1
-0.9175778,3.2267854,8.649054,-0.03268129,-0.03573562,-0.016493361,-15.557,31.105,-31.6,1
-0.9403227,3.3512838,8.1163435,0.026267206,-0.013439035,-0.018020526,-15.557,31.105,-31.6,1
-0.86729956,3.1950622,8.241441,-0.058337633,-0.005192355,-0.0009162979,-15.557,31.105,-31.3,1
-0.93852705,3.168726,8.549694,-0.025350908,0.09193522,-0.0036651916,-15.557,31.105,-31.3,1
-1.0241197,3.1866825,8.380903,0.025961773,0.026572637,-0.03176499,-15.557,31.105,-31.3,1
-1.0432734,3.2728736,8.144476,0.04337143,0.022602014,-0.032986723,-15.24,31.105,-31.3,1
-1.1180922,3.1896753,8.414422,-0.00030543262,0.00580322,-0.03604105,-15.24,31.105,-31.3,1
-1.1552023,3.271078,8.15525,0.0061086523,-0.01863139,-0.03726278,-15.24,31.105,-31.3,1
-0.9163807,3.0909145,8.503606,-0.062308256,-0.09010262,-0.021991149,-15.24,31.105,-31.623,1
-0.8948329,3.193865,8.457518,-0.089186326,-0.116675265,-0.050701816,-15.24,31.105,-31.623,1
-0.92775315,3.032855,8.66282,-0.08246681,-0.1255328,-0.02076942,-15.24,31.105,-31.309,1
-0.6739678,3.1262288,8.115147,0.053450707,0.023823744,0.016187929,-15.545,31.105,-31.309,1
-0.6027403,2.9885623,8.2516165,0.06566802,0.03848451,0.008857546,-15.545,31.105,-31.668,1
-1.0289081,3.0969,8.587403,-0.004581489,-0.0036651916,-0.052534413,-15.545,31.105,-31.668,1
-0.7697359,3.105878,8.599973,0.002443461,-0.08735373,-0.0571159,-15.545,31.105,-31.668,1
-1.1336545,3.0310593,9.01776,-0.20311269,0.42271876,-0.042455133,-15.545,31.105,-31.668,1
-0.6500258,3.3225534,8.206725,0.030543262,-0.06352998,-0.038179077,-15.85,31.413,-31.668,1
-1.1121067,2.8939912,10.759542,-0.3943135,0.2782491,-0.10751228,-15.85,31.413,-31.668,1
-0.7739257,3.2495303,8.37372,-0.034513887,-0.13439035,-0.043676864,-15.85,31.413,-31.668,1
-0.93014735,3.1495724,8.321048,0.07788532,0.020463986,0.0027488936,-15.85,31.413,-31.668,1
-0.97623575,3.2674868,8.313866,-0.018936822,-0.048258353,-0.020463986,-15.85,31.413,-32.005,1
-0.78888947,3.1346085,8.513183,0.023518313,-0.03940081,-0.0070249503,-15.85,31.413,-32.005,1
-0.8726865,3.0454245,8.3551655,-0.03848451,-0.021685716,-0.020463986,-15.85,31.413,-32.005,1
-1.0031705,3.1190462,8.668207,-0.03359759,-0.06078109,-0.0421497,-15.85,31.413,-31.674,1
-0.6691794,3.0508115,8.655638,-0.017715093,0.00580322,-0.005497787,-15.85,31.413,-31.674,1
-0.7529764,3.0262709,8.3868885,0.008246681,-0.024129177,-0.035124753,-15.85,31.413,-31.977,1
-1.079785,3.2213984,8.321647,0.02321288,0.0033597588,-0.050396383,-15.516,31.105,-31.977,1
-0.66139823,3.3530796,5.521029,0.2855795,-0.08857546,-0.021991149,-15.516,31.105,-31.977,1
-0.9780314,3.2465374,8.194754,0.086132,0.10262536,0.007941248,-15.516,31.105,-31.977,1
-0.8463503,3.031658,8.874108,-0.023518313,-0.062308256,-0.01038471,-15.818,31.411,-31.977,1
-0.8936358,3.1717186,8.4904375,0.034513887,-0.044593163,-0.031154128,-15.818,31.411,-31.977,1
-0.7649474,3.0442274,8.507795,0.046731193,-0.004581489,0.0027488936,-15.818,31.411,-31.652,1
-1.0259154,3.151368,8.549096,-0.015271631,-0.0143553335,-0.044593163,-15.818,31.411,-31.652,1
-0.9151836,3.3345244,8.356362,0.023823744,-0.0012217305,-0.020158553,-15.818,31.098,-31.652,1
-0.6871359,3.153762,8.507795,-0.014049901,-0.051618114,0.00061086525,-15.818,31.098,-31.652,1
-1.0079589,3.3770216,8.234259,0.06383542,0.026572637,-0.061391957,-15.818,31.098,-31.652,1
-0.83497787,3.3518825,8.422203,0.02687807,-0.03176499,-0.0421497,-15.818,30.793,-31.652,1
-0.8882488,3.3033998,8.288726,0.050396383,0.010079277,-0.03634648,-15.46,30.793,-31.652,1
-1.0049661,3.2142158,8.653842,0.03604105,0.03573562,-0.05375614,-15.46,30.793,-31.34,1
-0.96067345,3.489549,8.085817,0.09773844,0.03634648,-0.029932396,-15.147,30.793,-31.34,1
-1.377863,3.043629,9.3733,-0.25595254,0.027183503,-0.04520403,-15.147,30.482,-31.34,1
-1.0336965,3.4332852,8.467693,-0.04642576,-0.089491755,-0.03604105,-15.452,30.482,-31.34,1
-0.8487445,3.323152,8.446744,-0.013744468,-0.039095376,-0.019547688,-15.452,30.482,-31.34,1
-1.0965444,3.2638955,8.50181,-0.0027488936,-0.07238753,-0.03848451,-15.452,30.798,-31.34,1
-0.7505822,3.3824084,7.5016327,0.0693332,0.09040806,0.03848451,-15.452,30.798,-31.34,1
-0.99658644,3.4374752,8.400655,0.043982297,0.0852157,-0.04917465,-15.452,30.798,-31.34,1
-1.0301052,3.4249055,8.359355,0.0143553335,-0.01863139,-0.03573562,-15.452,30.798,-31.34,1
-1.1049241,3.2273839,9.238028,-0.103847094,-0.3100141,-0.108123146,-15.452,30.798,-31.34,1
-0.997185,3.364452,8.112753,0.06872234,0.054367006,-0.01740966,-15.452,30.798,-31.649,1
-1.2150574,3.2573113,8.534731,-0.008246681,-0.040011674,-0.029321533,-15.766,30.798,-31.649,1
-1.2916719,3.494936,8.193557,0.030848695,0.02443461,-0.032070424,-15.461,30.798,-31.649,1
-1.1935096,3.482965,8.161235,0.04337143,0.06078109,-0.022907447,-15.461,30.497,-31.347,1
-1.1067197,3.4272997,8.465898,0.027183503,-0.00580322,-0.009162978,-15.141,30.497,-31.347,1
-1.0869676,3.5194764,8.470686,0.089186326,0.12583824,-0.03176499,-15.141,30.497,-31.663,1
-1.2617443,3.6697125,7.7889366,0.2443461,0.33383787,-0.058643065,-14.831,30.18,-31.663,1
-1.8034325,3.5458126,8.576629,-0.028710667,0.20463985,-0.008857546,-14.53,30.18,-31.663,1
-1.4999673,3.57993,8.69993,-0.1423316,-0.1685988,-0.009773844,-14.53,30.18,-31.663,1
-1.3257892,3.6649241,7.77517,-0.09315695,-0.16218472,0.025045475,-14.53,30.18,-31.663,1
-1.1061212,3.1812954,8.74123,-0.27030787,-0.2947425,0.025350908,-14.53,30.18,-31.663,1
-0.7386112,3.074155,8.514978,-0.0030543262,-0.08032878,-0.0021380284,-15.177,30.479,-31.663,1
-0.7721301,2.9951463,8.988432,-0.03176499,-0.14813483,-0.0015271631,-15.177,30.786,-31.663,1
-0.96905315,3.1741128,8.752603,-0.004581489,-0.06872234,-0.014049901,-15.177,31.098,-31.663,1
-0.9528923,3.0669725,9.259575,-0.26542094,0.27366763,-0.02565634,-15.177,31.098,-31.663,1
-0.8122329,3.3602622,8.173804,-0.0021380284,-0.07727446,-0.054367006,-15.487,31.098,-31.333,1
-0.8523358,3.193865,8.308478,0.04337143,-0.035124753,-0.03970624,-15.487,31.098,-31.333,1
-1.0935516,3.117849,8.652645,-0.023823744,-0.06078109,-0.053145275,-15.487,31.098,-31.333,1
-0.97384155,3.2196028,8.562862,-0.016493361,-0.0571159,-0.01863139,-15.487,31.098,-31.333,1
-0.51235914,3.3267434,8.000225,0.018325957,0.49327368,0.07544186,-15.487,31.098,-31.333,1
-0.7978677,3.3967736,8.206725,0.09101892,0.093767814,-0.042455133,-15.487,31.098,-31.333,1
-0.91817635,3.2597055,8.536526,0.048563786,0.011911872,-0.022602014,-15.487,31.098,-31.658,1
-1.3365631,3.4799721,8.070854,0.09101892,0.1020145,-0.06963864,-15.487,30.795,-31.658,1
-1.1192893,3.5152867,8.030751,0.15149458,0.111177474,-0.018936822,-15.164,30.795,-31.658,1
-1.4131776,3.5895069,8.234857,0.08124508,0.051923547,-0.03023783,-15.164,30.473,-31.658,1
-1.489792,3.0603883,9.91798,-0.25961772,-0.003970624,0.016798794,-14.849,30.473,-31.658,1
-0.842759,3.4901476,8.423999,0.01985312,-0.14110987,-0.0030543262,-14.849,30.473,-31.658,1
-1.3922282,3.2872388,8.845977,-0.122783914,0.071776666,-0.025961773,-15.153,30.473,-31.971,1
-1.1659763,3.4284968,8.497022,-0.080634214,-0.09743301,-0.02107485,-15.153,30.473,-31.971,1
-1.0462662,3.3159695,8.639477,-0.03634648,-0.05009095,-0.004581489,-15.153,30.473,-31.66,1
-1.3263878,3.3333273,8.336012,-0.009468411,-0.062308256,-0.025350908,-15.153,30.473,-31.34,1
-1.0660183,3.3291376,8.336611,0.00061086525,-0.0009162979,-0.029932396,-15.153,30.473,-31.34,1
-1.3144168,3.4374752,8.152855,0.049785517,0.070554934,-0.03604105,-15.153,30.473,-31.34,1
-1.5825673,3.8959646,6.401497,0.07666359,-0.03604105,-0.04520403,-14.839,30.473,-31.643,1
-1.0319009,3.4943373,8.239047,-0.021380283,-0.025350908,0.006414085,-14.839,30.473,-31.643,1
-1.2467805,3.2184057,8.849568,-0.037873644,-0.064751714,-0.004581489,-15.148,30.78,-31.643,1
-1.1492168,3.3033998,8.360553,-0.0421497,-0.06627888,-0.0033597588,-15.148,30.78,-31.309,1
-1.0199299,3.4249055,8.298303,-0.003970624,-0.05100725,-0.023823744,-15.148,30.78,-31.309,1
-1.0324994,3.3919852,8.255806,-0.0067195175,-0.07513642,-0.035124753,-15.148,30.78,-31.309,1
-1.1893197,3.2555158,8.615535,-0.035430185,-0.08124508,-0.008552114,-15.148,30.78,-31.663,1
-1.0223241,3.25791,8.723872,-0.09560041,-0.12767084,-0.026267206,-15.148,30.78,-31.663,1
-0.8810662,3.2986114,8.47727,-0.01282817,-0.050701816,-0.008246681,-15.148,30.78,-31.663,1
-0.98940384,3.3662477,7.9834657,0.059253927,-0.007941248,-0.03726278,-15.148,30.78,-31.663,1
-0.97743285,3.3028011,8.325238,-0.027794369,-0.017104227,-0.025961773,-15.148,30.78,-31.663,1
-0.9504981,3.3022027,8.647258,-0.050701816,-0.09560041,-0.0290161,-15.148,30.78,-31.341,1
-1.2198458,3.1896753,9.272743,-0.14538592,-0.032986723,-0.089491755,-15.148,30.78,-31.341,1
-0.74519527,3.333926,8.160038,0.006414085,-0.0580322,0.0143553335,-15.493,30.78,-31.341,1
-0.88645315,3.269881,8.400655,0.020463986,-0.01038471,-0.018020526,-15.493,30.78,-31.341,1
-0.8996213,3.3033998,8.321048,0.014966198,-0.04184427,-0.023823744,-15.493,30.78,-31.341,1
-0.8295909,3.264494,8.372523,-0.014049901,-0.041233405,-0.038179077,-15.493,30.78,-31.341,1
-1.1007342,3.354875,8.248025,0.003970624,0.015577064,-0.074830994,-15.493,30.78,-31.341,1
-0.8900445,3.2932243,8.5862055,-0.032375857,-0.046731193,-0.009773844,-15.493,30.78,-31.341,1
-0.94092125,3.342904,8.305486,0.018325957,-0.025045475,-0.040317107,-15.493,30.78,-31.341,1
-0.9552865,3.342904,8.484452,-0.024129177,-0.035124753,-0.04153884,-15.493,30.78,-31.669,1
-0.9451111,3.3782187,8.388085,0.0015271631,-0.047036625,-0.03268129,-15.805,30.78,-31.982,1
-0.9247604,3.318962,8.22528,0.02107485,-0.05467244,-0.02565634,-15.805,30.471,-31.982,1
-0.9139865,3.4021606,8.359954,-0.0012217305,-0.02687807,-0.03359759,-15.805,30.471,-31.671,1
-0.8774749,3.335123,8.322844,0,-0.0067195175,-0.011911872,-15.499,30.471,-31.671,1
-0.8002619,3.3327289,8.465898,-0.0027488936,0.0018325958,-0.024740042,-15.499,30.471,-31.332,1
-0.9211691,3.301604,8.489241,0.029932396,0.064751714,-0.031154128,-15.499,30.471,-31.332,1
-1.1150994,3.4009635,8.589199,0.025350908,0.014049901,-0.03756821,-15.499,30.471,-31.332,1
-1.0672154,3.4733882,8.309675,0.016798794,-0.037873644,-0.024740042,-15.499,30.471,-31.332,1
-1.2545617,3.25372,8.941146,-0.1469131,-0.06658431,-0.04184427,-15.499,30.471,-31.332,1
-0.8607155,3.447052,8.377312,-0.04153884,-0.079107046,0.01038471,-15.499,30.471,-31.332,1
-0.79966336,3.3997664,8.347384,-0.03023783,-0.05375614,-0.008552114,-15.805,30.471,-31.332,1
-0.9720459,3.3482912,8.298902,0.018936822,-0.04795292,-0.025045475,-15.805,30.471,-31.332,1
-0.8834604,3.4207156,8.312668,0.025045475,-0.019242255,-0.0290161,-15.805,30.471,-31.332,1
-0.95827925,3.5889084,8.77834,0.03756821,-0.070249505,-0.040317107,-15.805,30.471,-31.332,1
-1.0767922,3.3704374,8.109161,0.012217305,-0.1160644,0.035430185,-15.805,30.471,-31.332,1
-0.85173726,3.2172086,8.664616,-0.03634648,-0.017104227,-0.02107485,-15.805,30.471,-31.332,1
-0.83138657,3.2650926,8.503007,-0.024740042,-0.06383542,-0.041233405,-15.805,30.471,-31.332,1
-1.0241197,3.3919852,8.537125,-0.006414085,-0.007330383,-0.053145275,-15.805,30.471,-31.332,1
-1.1641805,3.4751837,8.104373,0.038179077,0.07880162,-0.044898596,-15.805,30.471,-31.332,1
-1.3215994,3.630807,8.038532,0.076358154,0.073303826,-0.029932396,-15.805,30.471,-31.332,1
-1.1007342,3.5242648,8.231864,0.03481932,0.056505036,0.008246681,-15.46,30.471,-31.332,1
-0.9911995,3.4386723,8.447941,0.008857546,-0.019547688,-0.0015271631,-15.15,30.471,-31.332,1
-1.1653777,3.5093012,8.228272,0.07788532,0.06566802,-0.014049901,-15.15,30.471,-31.332,1
-1.4879963,3.6056678,8.365341,0.032070424,0.084910266,-0.034513887,-14.816,30.162,-31.332,1
-1.2940661,3.6607344,8.017583,0.0888809,0.19486602,0.004886922,-14.466,30.162,-31.008,1
-1.1575965,3.696049,8.02297,0.15088372,0.2321288,-0.00030543262,-14.132,29.861,-31.008,1
-1.9758149,3.244742,9.2069025,-0.44959682,-0.13469578,0.028405234,-14.132,29.861,-30.696,1
-1.2952632,3.8061821,8.144476,-0.077579886,-0.21502456,-0.039095376,-14.132,29.861,-30.696,1
-1.5915456,3.620033,8.025364,-0.033292156,-0.07819075,-0.016798794,-14.132,29.861,-30.696,1
-1.3599066,3.5368345,8.282143,-0.04428773,-0.06719518,0.03176499,-14.132,29.861,-30.696,1
-1.1456255,3.5194764,8.548497,-0.03756821,-0.16768251,-0.005497787,-14.434,29.861,-30.696,1
-1.0139444,3.5009215,8.100183,-0.053145275,-0.12736541,-0.01863139,-14.434,29.861,-30.696,1
-1.1180922,3.4769795,8.207922,0.005192355,-0.043066,-0.038179077,-14.744,30.168,-30.696,1
-1.0642227,3.4745853,8.212111,0.007330383,-0.070249505,-0.021380283,-14.744,30.168,-31.085,1
-0.84575176,3.41473,8.431181,-0.044898596,-0.13988814,0.008857546,-14.744,30.168,-31.085,1
-0.9708488,3.3943794,8.41921,-0.015577064,-0.073303826,-0.004886922,-15.048,30.168,-31.085,1
-1.0205284,3.4404678,8.365939,-0.0125227375,-0.02565634,-0.026267206,-15.048,30.168,-31.085,1
-0.96905315,3.442862,8.34499,0,-0.032986723,-0.029932396,-15.048,30.168,-31.085,1
-0.96187055,3.4638114,8.243835,0.0021380284,-0.04062254,-0.028710667,-15.048,30.168,-31.085,1
-0.96426475,3.465607,8.491635,-0.04917465,0.08368854,0.021991149,-15.048,30.168,-31.085,1
-1.0079589,3.5248635,8.24204,0.004886922,-0.018020526,-0.028710667,-15.365,30.168,-31.085,1
-0.8810662,3.4123359,8.515577,-0.028405234,-0.09193522,0.0070249503,-15.711,30.473,-31.085,1
-0.89782566,3.4644098,8.056489,0.013439035,-0.04550946,-0.01740966,-15.711,30.473,-30.758,1
-0.9828198,3.4560301,8.2593975,0.01038471,-0.033292156,-0.029626964,-15.711,30.473,-30.758,1
-0.89303726,3.3854012,8.387487,-0.011301007,-0.04550946,-0.008552114,-15.711,30.473,-31.083,1
-0.88166475,3.406949,8.385093,-0.021685716,-0.042760566,-0.04886922,-15.711,30.473,-31.388,1
-1.0426749,3.4129345,8.655638,-0.029321533,0.46883908,-0.019547688,-15.711,30.473,-31.388,1
-0.9427169,3.4823663,8.212111,0.03848451,0.04886922,-0.0580322,-15.711,30.473,-31.388,1
-0.943914,3.323152,8.532935,0.043982297,0.025350908,-0.038789943,-15.711,30.473,-31.085,1
-1.1426327,3.4626143,8.6095495,0.00580322,-0.02321288,-0.08399397,-15.4,30.473,-31.085,1
-1.3928268,3.608062,8.240842,0.0290161,0.019547688,-0.05497787,-15.4,30.473,-31.085,1
-1.1761516,3.663727,8.230068,0.0067195175,0.022296581,-0.01985312,-15.4,30.473,-31.085,1
-1.2246342,3.608062,8.11395,0.06505715,0.05681047,-0.03268129,-15.063,30.154,-31.085,1
-1.2898762,3.5889084,8.2516165,0.01160644,-0.018325957,-0.040011674,-15.063,30.154,-31.085,1
-1.1468226,3.591901,8.379706,-0.002443461,-0.04184427,-0.014966198,-14.753,29.827,-31.085,1
-1.2563573,3.6284127,8.459911,-0.021380283,-0.027794369,-0.033292156,-14.753,29.827,-31.398,1
-1.3030443,3.651756,8.519767,0.009773844,-0.122783914,-0.05681047,-14.753,29.827,-31.092,1
-1.2078748,3.6613328,8.319252,-0.06169739,-0.013439035,-0.025045475,-14.753,29.827,-31.092,1
-1.1186907,3.6206315,8.179192,0.028710667,0.043982297,-0.01160644,-14.753,29.827,-31.092,1
-1.769315,3.9839516,6.5008564,0.0143553335,-0.004886922,-0.0720821,-14.753,29.827,-31.092,1
-1.311424,3.690662,8.104971,-0.040927973,-0.04062254,-0.0290161,-14.753,29.827,-31.092,1
-1.4706384,3.445855,8.645462,-0.036651913,-0.09590584,-0.02107485,-14.753,30.142,-31.092,1
-0.97264445,3.5883098,8.070854,-0.019242255,-0.095294975,0.02076942,-15.083,30.142,-31.092,1
-1.134253,3.496133,8.423999,-0.020463986,-0.0580322,-0.02443461,-15.083,30.142,-31.396,1
-0.94451255,3.5122938,8.09719,0.02565634,-0.093767814,-0.01740966,-15.083,30.142,-31.396,1
-1.2826935,3.435081,8.308478,-0.04917465,-0.08277224,-0.049480084,-15.083,30.142,-31.396,1
-1.067814,3.5045128,8.277952,0.01038471,-0.057421334,-0.0067195175,-15.083,30.142,-31.396,1
-1.1294646,3.478775,8.019978,-0.05131268,-0.092240654,-0.02321288,-15.083,30.142,-31.396,1
-1.086369,3.5553896,7.7769656,-0.046120327,-0.02321288,-0.004886922,-15.083,30.142,-31.396,1
-0.84934306,3.1184478,9.292496,-0.21410827,-0.22357668,0.028099801,-15.397,30.459,-31.396,1
-0.55365914,3.2345665,8.617331,-0.05131268,-0.10170906,0.042455133,-15.397,30.459,-31.396,1
-0.59735334,3.1304188,8.594585,-0.031154128,-0.03573562,-0.0009162979,-15.397,30.76,-31.396,1
-0.86490536,3.1956608,8.545505,-0.013133603,-0.022907447,-0.03604105,-15.705,30.76,-31.095,1
-0.9516952,3.3093853,8.412027,0.01038471,0.016493361,-0.046120327,-15.705,30.76,-31.095,1
-0.83976626,3.3728316,9.482835,0.025961773,-0.0580322,-0.04917465,-15.705,30.76,-31.095,1
-0.93134445,3.2668881,8.487445,-0.09101892,-0.30787608,-0.0027488936,-15.705,30.76,-31.419,1
-0.6811504,3.2064347,8.604761,0.0076358155,-0.016493361,0.010995574,-16.006,30.76,-31.419,1
-0.88046765,3.454833,6.0381765,0.27000242,0.07147124,0.011911872,-16.006,30.76,-31.419,1
-0.6925228,3.4865563,8.076241,0.11636983,0.23732115,0.0018325958,-16.006,30.76,-31.419,1
-0.8936358,3.21661,8.741829,-0.027488936,-0.10170906,-0.027183503,-16.006,30.76,-31.419,1
-0.96785605,3.301604,8.347982,-0.002443461,-0.030848695,-0.024740042,-16.006,30.76,-31.088,1
-0.736217,3.3237505,8.354567,0.009773844,-0.020463986,-0.008246681,-16.006,30.76,-30.776,1
-0.82779527,3.2483332,8.7292595,-0.024129177,-0.05589417,-0.030543262,-16.006,30.76,-30.776,1
-0.7978677,3.3997664,8.352173,0.06872234,0.027183503,-0.028405234,-16.006,30.76,-31.085,1
-1.0324994,3.3572693,8.282741,0.080634214,0.040927973,-0.019547688,-16.006,30.76,-31.085,1
-1.0378864,3.4703953,8.510789,0.02321288,0.061086524,-0.03940081,-15.675,30.436,-31.085,1
-1.4975731,4.1180267,5.8885393,0.070554934,-0.061391957,-0.03726278,-15.675,30.436,-31.422,1
-0.94690675,3.5326445,8.133103,0.043066,0.18661933,0.046731193,-15.675,30.436,-31.422,1
-1.0073603,3.3363202,8.450933,-0.014049901,-0.05009095,-0.03573562,-15.675,30.436,-31.422,1
-0.95349085,3.4733882,8.127118,-0.040011674,-0.07880162,-0.04062254,-15.675,30.436,-31.422,1
-0.93852705,3.4799721,8.220491,0.022907447,-0.015577064,-0.004276057,-15.675,30.436,-31.079,1
-0.83737206,3.3752258,8.428188,-0.06078109,-0.070554934,-0.009468411,-15.675,30.436,-31.079,1
-0.84455466,3.401562,8.312668,-0.037873644,-0.105068825,-0.02321288,-15.675,30.436,-31.079,1
-0.92296475,3.3746274,8.500014,-0.046120327,-0.08674286,-0.034513887,-15.675,30.436,-31.408,1
-0.6410475,3.3183637,8.515577,-0.018325957,-0.013744468,-0.0290161,-15.983,30.436,-31.408,1
-0.58538234,3.4626143,8.034941,0.053450707,0.008246681,-0.028405234,-15.983,30.436,-31.408,1
-1.340753,3.4512417,8.335413,0.029321533,0.0711658,-0.03848451,-15.655,30.436,-31.408,1
-0.9151836,3.3566709,8.479664,0.076052725,0.070554934,-0.027183503,-15.655,30.436,-31.069,1
-1.103727,3.4500446,8.16363,0.05222898,0.0580322,-0.047036625,-15.318,30.436,-31.069,1
-1.1623849,3.2495303,9.322423,-0.07788532,-0.2574797,-0.0021380284,-15.318,30.436,-31.069,1
-0.8146271,3.6619315,8.279748,-0.03145956,-0.07971791,-0.007330383,-15.318,30.436,-31.381,1
-1.0803835,3.311181,8.441956,0.00580322,-0.071776666,-0.0012217305,-15.623,30.436,-31.381,1
-1.1761516,3.311181,8.278551,-0.034513887,-0.06872234,-0.025350908,-15.623,30.436,-31.071,1
-0.9427169,3.4566288,8.361151,-0.026267206,-0.065973446,-0.01282817,-15.623,30.743,-31.071,1
-0.7577648,3.3105824,8.523358,-0.02565634,-0.06780604,-0.008246681,-15.623,30.743,-31.384,1
-1.0295067,3.3716345,8.088212,0.0125227375,-0.030543262,-0.04886922,-15.623,30.743,-31.384,1
-0.7942764,3.425504,8.529344,-0.05497787,-0.103847094,-0.054061573,-15.937,30.743,-31.384,1
-0.66618663,3.4159272,8.341997,-0.0125227375,-0.089491755,-0.00061086525,-15.937,30.743,-31.384,1
-0.91219085,3.3117795,8.339603,0.004276057,-0.070554934,-0.03726278,-15.937,30.743,-31.384,1
-0.7248446,3.3063924,8.318654,-0.016187929,-0.060170226,-0.017715093,-15.937,30.743,-31.384,1
-0.7092823,3.3602622,8.35337,-0.029932396,-0.11575896,-0.06414085,-15.937,30.743,-31.384,1
-0.5722142,3.3159695,8.252813,-0.028099801,-0.11362094,-0.028710667,-16.241,30.743,-31.384,1
-0.6847417,3.3393128,8.378509,-0.017715093,-0.050701816,-0.03940081,-16.241,30.743,-31.384,1
-0.59256494,3.3087866,8.349778,0.010079277,-0.0033597588,-0.027488936,-16.241,30.743,-31.384,1
-0.7026982,3.2746694,8.335413,0.014660766,-0.014966198,-0.040011674,-16.241,30.743,-31.384,1
-0.46986207,3.276465,8.524555,0.00061086525,-0.0012217305,-0.014966198,-16.241,30.743,-31.384,1
-0.6386533,3.333926,8.41921,0.017104227,0.044898596,-0.018325957,-16.241,30.743,-31.384,1
-0.89543146,3.359065,8.404246,0.053145275,0.0852157,-0.036957346,-16.241,30.743,-31.684,1
-0.8403648,3.3877954,8.376115,0.052534413,0.034513887,-0.0076358155,-16.241,30.743,-31.375,1
-0.7428011,3.3638535,8.250419,0.01038471,-0.027794369,0.00030543262,-16.241,30.427,-31.375,1
-0.6703765,3.4410665,8.556877,-0.030848695,-0.05681047,-0.013133603,-16.241,30.427,-31.375,1
-0.7673417,3.5051112,8.254609,0.009773844,-0.028405234,-0.034208454,-16.241,30.427,-31.375,1
-0.70509243,3.4644098,8.316858,0.0070249503,-0.076052725,-0.033292156,-15.922,30.427,-31.375,1
-0.7266402,3.4302924,8.363545,-0.011911872,-0.07269296,-0.03023783,-15.922,30.427,-31.375,1
-0.7386112,3.4398694,8.315661,-0.016493361,-0.014966198,-0.032070424,-15.922,30.427,-31.375,1
-0.62728083,3.401562,8.409634,-0.011301007,-0.01038471,-0.023823744,-15.922,30.427,-31.375,1
-0.63206923,3.4141316,8.408437,-0.03145956,-0.044593163,-0.019242255,-15.922,30.427,-31.375,1
-0.7745243,3.4261026,8.579621,-0.040317107,-0.006414085,-0.024129177,-15.922,30.427,-31.375,1
-0.8122329,3.3842041,8.449138,-0.007330383,-0.04428773,-0.007330383,-15.922,30.427,-31.375,1
-0.6847417,3.316568,8.240244,0.0125227375,-0.012217305,-0.022907447,-15.922,30.427,-31.375,1
-0.7104794,3.4512417,8.244433,-0.010079277,-0.01863139,-0.025350908,-15.922,30.427,-31.375,1
-0.75237787,3.4440591,8.307879,-0.019242255,-0.040927973,-0.013439035,-15.922,30.427,-31.375,1
-0.65900403,3.4284968,8.18398,-0.003970624,0.006414085,0.0030543262,-15.922,30.427,-31.375,1
-0.8511387,3.3028011,8.690952,-0.043676864,-0.03940081,-0.029626964,-15.922,30.427,-31.375,1
-0.55844754,3.3931823,8.164826,-0.0030543262,-0.02076942,-0.0106901415,-15.922,30.427,-31.375,1
-0.8050503,3.3476925,8.487445,-0.03848451,-0.05589417,-0.03726278,-15.922,30.427,-31.375,1
-0.7954735,3.265691,8.522759,-0.05131268,-0.03970624,-0.011911872,-15.922,30.427,-31.375,1
-0.7433996,3.21661,8.666411,-0.06872234,-0.06505715,-0.0070249503,-15.922,30.427,-31.375,1
-0.52612585,3.2890346,8.509591,-0.01038471,-0.056505036,-0.005192355,-15.922,30.427,-31.375,1
-0.6889315,3.2716765,8.352771,0.003970624,-0.043066,-0.018936822,-16.223,30.427,-31.375,1
-0.6135142,3.2968156,8.372523,-0.054061573,-0.07788532,-0.0125227375,-16.223,30.427,-31.375,1
-0.53570265,3.277662,8.363545,-0.004581489,-0.06566802,-0.012217305,-16.223,30.427,-31.375,1
-0.40940848,3.1884782,8.541913,-0.020463986,-0.050396383,-0.02687807,-16.223,30.427,-31.375,1
-0.6075287,3.208829,8.733449,-0.032986723,-0.04550946,-0.03940081,-16.537,30.728,-31.375,1
-0.56084174,3.2441432,8.584411,-0.035430185,-0.033292156,-0.02321288,-16.537,30.728,-31.375,1
-0.60932434,3.1842883,8.735844,-0.046731193,-0.038789943,-0.011301007,-16.537,30.728,-31.375,1
-0.5746084,3.141791,8.680777,-0.049785517,-0.019242255,-0.044898596,-16.537,30.728,-31.692,1
-0.6997054,3.2620997,8.365939,0.008246681,-0.043066,-0.058337633,-16.537,30.728,-31.692,1
-0.7254431,3.1866825,8.569447,-0.011911872,-0.052839845,-0.042455133,-16.537,30.728,-31.692,1
-0.6769605,3.2854433,8.389881,-0.029932396,-0.01740966,-0.016187929,-16.537,30.728,-31.369,1
-0.5518635,3.196858,8.351574,-0.05681047,-0.040927973,-0.016187929,-16.236,30.728,-31.369,1
-0.6063316,3.1334114,8.717887,-0.0888809,-0.025045475,0.009773844,-16.236,30.728,-31.369,1
-0.50038815,3.0627825,8.666411,-0.025350908,-0.062308256,-0.0009162979,-16.236,30.728,-31.062,1
-0.60214174,3.0280666,8.461109,0.0033597588,-0.051618114,-0.021685716,-16.236,31.037,-31.062,1
-0.51595044,3.1663318,8.337808,-0.0070249503,-0.06261369,-0.037873644,-16.236,31.037,-31.062,1
-0.6727707,3.0969,8.677185,-0.022296581,-0.036651913,-0.044593163,-16.236,31.037,-31.062,1
-0.92535895,2.9771898,8.814254,-0.06047566,0.00580322,-0.06658431,-16.236,31.037,-31.062,1
-0.2873042,3.1244333,8.181585,-0.006414085,-0.029626964,-0.0067195175,-16.236,31.037,-31.375,1
-0.7350199,3.0693667,8.713099,-0.027794369,0.009468411,-0.058948494,-16.236,31.34,-31.375,1
-0.78649527,3.1842883,8.318654,0.04734206,0.047647487,-0.0067195175,-16.236,31.34,-31.375,1
-0.53211135,3.0220811,8.3551655,-0.029932396,-0.0143553335,-0.0061086523,-16.236,31.34,-31.375,1
-0.6314707,3.1370027,8.647857,-0.03726278,-0.025961773,-0.02076942,-16.236,31.34,-31.701,1
-0.6973112,3.1441853,8.401254,0.034208454,-0.022296581,-0.032070424,-16.236,31.34,-31.701,1
-0.64942724,3.1004913,8.291719,0.035124753,-0.028710667,-0.031154128,-16.236,31.34,-31.384,1
-0.58777654,3.1118636,8.486847,0.08307768,0.06780604,-0.034513887,-16.236,31.34,-31.384,1
-0.7918822,3.1663318,8.522161,0.098043874,0.14172074,-0.03573562,-16.236,31.34,-31.384,1
-0.83138657,3.3554738,8.571242,0.037873644,0.0036651916,-0.021685716,-15.908,31.031,-31.384,1
-1.0666169,3.3357215,8.287529,0.076358154,0.06169739,-0.027794369,-15.56,31.031,-31.066,1
-1.0307038,3.3542767,8.308478,0.09437868,0.070554934,-0.013439035,-15.243,30.729,-31.066,1
-0.6823475,3.4925418,8.374319,-0.05955936,-0.07086037,0.037873644,-15.243,30.403,-31.066,1
-0.80684596,3.551798,8.248624,-0.062308256,-0.09132435,-0.018325957,-15.243,30.403,-31.37,1
-0.97743285,3.1998506,8.821436,-0.06963864,-0.17134771,-0.0143553335,-15.553,30.403,-31.37,1
-0.6218939,3.2513258,8.563461,-0.07238753,-0.21135938,-0.014966198,-15.858,30.709,-31.37,1
-0.7218518,3.2507274,8.504803,-0.073303826,-0.15088372,-0.03756821,-15.858,30.709,-31.692,1
-0.7721301,3.2202013,8.568848,-0.048563786,-0.10598512,-0.046120327,-16.181,30.709,-31.692,1
-0.61112,3.2758665,8.373122,-0.002443461,-0.0711658,-0.019547688,-16.181,30.709,-31.692,1
-0.6488287,3.1531637,8.495825,0.005192355,-0.027794369,-0.029321533,-16.181,30.709,-31.692,1
-0.78649527,3.3141737,8.503007,-0.00061086525,0.03940081,-0.03390302,-16.181,30.709,-31.692,1
-0.7290344,3.2956185,8.485051,0.014966198,-0.01282817,-0.009162978,-16.181,30.709,-31.692,1
-0.76554596,3.2842462,8.394072,0.02687807,0.01740966,-0.021685716,-16.181,30.709,-31.37,1
-0.7344214,3.2519245,8.416218,0.007941248,0.0033597588,-0.0125227375,-16.181,30.709,-31.37,1
-0.8403648,3.3608606,8.406641,-0.00030543262,0.0033597588,-0.028710667,-16.181,30.709,-31.692,1
-0.78050977,3.3614593,8.234857,0.021685716,-0.0076358155,-0.003970624,-16.181,30.709,-31.692,1
-0.7823054,3.318962,8.209119,0.00580322,-0.0015271631,-0.02443461,-16.181,30.709,-31.692,1
-0.91937345,3.3321302,8.380903,-0.015577064,-0.034208454,-0.029932396,-15.879,30.709,-31.692,1
-0.74878657,3.3028011,8.432379,-0.021380283,-0.07666359,-0.0076358155,-15.879,30.709,-31.692,1
-0.6805518,3.3369186,8.296508,-0.0106901415,-0.06872234,-0.021991149,-15.879,30.709,-31.391,1
-0.6051345,3.3686419,8.197148,0.0027488936,-0.065973446,-0.03268129,-15.879,30.709,-31.391,1
-0.7206547,3.3620577,8.306085,-0.007941248,-0.053450707,-0.022602014,-15.879,30.709,-31.391,1
-0.6775591,3.3566709,8.098986,0.024740042,-0.013439035,-0.0018325958,-16.181,30.709,-31.391,1
-0.41958386,3.2106245,8.416816,0.023518313,-0.010995574,0.003970624,-16.181,30.709,-31.391,1
-0.635062,3.2914288,8.3072815,0.058948494,0.020158553,-0.058948494,-16.181,30.709,-31.391,1
-0.80445176,3.3452983,8.435969,0.008552114,-0.03940081,-0.06719518,-16.181,30.709,-31.391,1
-0.7104794,3.365649,8.343194,0.011911872,-0.025350908,-0.01985312,-16.181,30.709,-31.072,1
-0.6631939,3.352481,8.412027,0.0027488936,-0.03176499,-0.022907447,-16.181,30.709,-31.072,1
-0.6655881,3.3955765,8.350976,0.004276057,-0.051923547,-0.021991149,-16.181,30.709,-31.375,1
-0.7469909,3.369839,8.326435,0.0067195175,-0.03756821,-0.015577064,-16.181,30.395,-31.732,1
-0.7164649,3.364452,8.381501,-0.016187929,-0.022296581,-0.009468411,-16.181,30.395,-31.732,1
-0.54408234,3.402759,8.118139,0.014966198,-0.021380283,-0.007941248,-16.181,30.395,-31.732,1
-0.7553706,3.4626143,8.334815,-0.00580322,-0.03023783,-0.03390302,-16.181,30.395,-31.732,1
-0.6290765,3.4302924,8.360553,-0.0033597588,-0.053450707,-0.014049901,-16.181,30.395,-31.732,1
-0.7422025,3.4314895,8.114548,0.0015271631,-0.024740042,-0.0106901415,-16.181,30.395,-31.732,1
-0.688333,3.3315318,8.374918,-0.074830994,-0.055588737,0.005497787,-16.181,30.395,-31.732,1
-0.5847838,3.2638955,8.677784,-0.08155051,-0.04550946,0.01282817,-16.181,30.395,-31.732,1
-0.6607997,3.2309752,8.470686,-0.01863139,-0.0711658,-0.0030543262,-16.181,30.395,-31.732,1
-0.44472298,3.1836896,8.4425535,0.022602014,-0.010995574,-0.0021380284,-16.181,30.395,-32.052,1
-0.54647654,3.301604,8.425196,0.03573562,0.029321533,-0.037873644,-16.181,30.395,-32.052,1
-0.62129533,3.2890346,8.467094,0.057726767,0.08368854,-0.053145275,-16.181,30.395,-32.052,1
-0.79487497,3.4003649,8.346188,0.112399206,0.20372356,-0.058948494,-16.181,30.395,-32.052,1
-1.1025299,3.4973302,8.149264,0.06780604,0.09437868,-0.047036625,-15.879,30.395,-31.709,1
-1.1408371,3.5775359,8.228272,0.094989546,0.172264,-0.03268129,-15.222,30.395,-31.373,1
-1.1390414,3.514688,8.453926,0.08277224,0.1133155,-0.00061086525,-14.913,30.081,-31.373,1
-1.6112977,4.007295,5.6527104,0.1572978,0.018020526,-0.069027774,-14.913,30.081,-31.373,1
-1.1587936,3.7044287,8.202535,-0.09407325,-0.07574729,-0.02076942,-14.913,30.081,-31.373,1
-1.062427,3.469797,8.536526,-0.07727446,-0.12583824,-0.009468411,-15.223,30.081,-31.373,1
-0.85413146,3.3979707,8.307879,-0.06383542,-0.17745635,-0.008857546,-15.548,30.4,-31.373,1
-0.8295909,3.4638114,8.220491,-0.02443461,-0.118507855,-0.014049901,-15.879,30.4,-31.373,1
-0.80325466,3.3806129,8.432379,-0.04520403,-0.12370021,-0.027183503,-15.879,30.4,-31.373,1
-0.770933,3.4290953,8.237251,-0.008552114,-0.08002335,-0.040317107,-15.879,30.4,-31.373,1
-0.9020155,3.288436,8.387487,-0.027488936,-0.053450707,-0.04520403,-16.192,30.4,-31.373,1
-0.7206547,3.2842462,8.602366,-0.034208454,-0.07819075,-0.04337143,-16.192,30.4,-31.373,1
-0.5746084,3.3614593,8.59698,-0.03390302,-0.111177474,-0.029932396,-16.192,30.4,-31.373,1
-0.7290344,3.2722752,8.547898,-0.01160644,-0.06719518,-0.031154128,-16.192,30.4,-31.373,1
-0.7410054,3.3147724,8.47727,-0.021380283,-0.043066,-0.04642576,-16.192,30.4,-31.373,1
-0.66738373,3.3716345,8.404246,-0.025045475,-0.029932396,-0.028099801,-16.192,30.4,-31.675,1
-0.6123171,3.3207579,8.372523,0.009468411,-0.04184427,-0.028099801,-16.192,30.4,-31.675,1
-0.7044938,3.3728316,8.450335,0.0015271631,-0.058643065,-0.044593163,-16.192,30.4,-31.675,1
-0.7170634,3.3213563,8.531139,-0.03268129,-0.07086037,-0.03573562,-16.192,30.715,-31.675,1
-0.59256494,3.306991,8.418612,0.002443461,-0.0076358155,-0.016798794,-16.192,30.715,-31.675,1
-0.7098808,3.3345244,8.328231,0.02443461,0.07819075,-0.01740966,-16.192,30.715,-31.675,1
-0.6404489,3.4440591,8.090008,0.02076942,0.043982297,-0.013133603,-16.192,30.715,-31.675,1
-0.7445967,3.4745853,8.21271,0.021380283,-0.0061086523,-0.008857546,-16.192,30.715,-31.675,1
-0.6278794,3.4117374,8.257003,0.03573562,-0.004276057,-0.010079277,-15.885,30.715,-31.675,1
-0.5734113,3.3261447,8.380304,0.050396383,0.025350908,-0.022907447,-15.885,30.41,-31.324,1
-0.95708215,3.4793737,8.291121,0.10567969,0.15118915,-0.058948494,-15.885,30.41,-31.324,1
-0.9624691,3.527856,8.548497,0.14385876,0.18081611,-0.014049901,-15.885,30.41,-31.324,1
-1.1504139,3.9312792,7.726089,0.103847094,0.08155051,-0.025350908,-15.559,30.088,-31.324,1
-1.3401544,3.5901055,8.901642,-0.037873644,-0.22479841,-0.03756821,-15.243,30.088,-31.324,1
-0.7811083,3.6421793,8.476072,-0.016187929,-0.122478485,0.009468411,-15.243,30.088,-31.324,1
-0.80445176,3.417723,8.550891,-0.057726767,-0.16187929,0.013133603,-15.553,30.088,-31.324,1
-0.85772276,3.5140896,8.27077,-0.01038471,-0.10445796,0.0061086523,-15.553,30.088,-31.324,1
-0.8535329,3.3752258,8.620922,-0.07086037,-0.04184427,-0.011301007,-15.553,30.088,-31.324,1
-0.75477207,3.3794158,8.813655,-0.049480084,-0.09621128,-0.030848695,-15.553,30.088,-31.675,1
-0.85173726,3.4865563,8.371326,0.0015271631,-0.054061573,-0.036651913,-15.553,30.088,-31.675,1
-0.8774749,3.4763808,8.197148,0.03573562,0.019547688,-0.056199603,-15.859,30.088,-31.675,1
-0.9151836,3.5571852,8.523956,0.007330383,0.040317107,-0.036957346,-15.859,30.088,-31.675,1
-1.1480197,3.667917,8.1079645,0.09590584,0.08155051,-0.048563786,-15.554,30.088,-31.675,1
-1.0199299,3.6493618,8.425196,0.07849618,0.061391957,-0.021991149,-15.225,30.088,-31.675,1
-1.38325,4.2036195,5.8963203,0.12950343,0.03604105,-0.048258353,-15.225,29.771,-31.675,1
-1.2348095,3.7966053,7.9768815,-0.026267206,0.034208454,0.0061086523,-15.225,29.771,-31.356,1
-1.1426327,3.674501,8.5538845,-0.0421497,-0.055283304,-0.02565634,-15.225,29.771,-31.356,1
-0.9983821,3.7618895,7.773973,0.021991149,-0.050701816,-0.022296581,-15.225,29.771,-31.356,1
-1.0803835,3.8468835,7.896077,-0.064446285,-0.1142318,-0.021380283,-15.225,29.771,-31.356,1
-0.9175778,3.6206315,8.335413,-0.05497787,-0.070249505,0.012217305,-15.225,29.771,-31.356,1
-0.7128736,3.328539,8.678383,-0.12614368,-0.13927728,0.02076942,-15.553,29.771,-31.356,1
-0.4961983,3.3476925,8.523358,-0.025045475,-0.09896017,0.01282817,-15.875,29.771,-31.356,1
-0.87089086,3.5523968,8.443152,0.023823744,-0.019242255,-0.055283304,-15.875,30.097,-31.669,1
-0.90859956,3.6296098,8.217499,0.046120327,0.024129177,-0.057421334,-15.875,30.097,-31.669,1
-1.0905589,3.5751417,8.304289,0.018020526,-0.021685716,-0.048258353,-15.573,30.097,-31.35,1
-0.99538934,3.4584243,9.543886,-0.2012801,0.026572637,-0.05222898,-15.573,30.097,-31.35,1
-0.90979666,3.7391446,8.056489,-0.009773844,-0.06261369,-0.032986723,-15.872,30.097,-31.671,1
-0.7942764,3.5793316,8.557475,-0.005497787,-0.02076942,-0.011911872,-15.872,30.097,-31.671,1
-0.9151836,3.6224272,8.143877,0.029321533,0.013439035,-0.036957346,-15.872,30.097,-31.671,1
-0.7661445,3.6092591,8.489241,-0.04520403,-0.06872234,-0.025961773,-15.872,30.097,-31.671,1
-0.86969376,3.6535518,8.426991,0.011301007,-0.060170226,-0.043676864,-15.872,30.097,-32.009,1
-0.8810662,3.638588,8.191162,0.005497787,-0.06047566,-0.023518313,-15.872,30.097,-32.009,1
-0.7846996,3.6074634,8.476072,-0.02076942,-0.030848695,-0.025350908,-15.872,30.097,-32.009,1
-0.8762778,3.702633,8.199542,0.03634648,-0.01740966,-0.0290161,-15.872,29.794,-32.009,1
-0.65421563,3.7924154,7.937976,0.035430185,0.004276057,0.004276057,-15.872,29.794,-31.672,1
-0.95708215,3.7247794,8.274361,0.027488936,0.0015271631,-0.003970624,-15.872,29.794,-31.672,1
-0.83378077,3.7594953,8.091205,0.016798794,0.011911872,0.018936822,-15.872,29.493,-31.672,1
-0.88405895,3.8001966,7.9966335,0.015882496,0.004581489,-0.005192355,-15.872,29.493,-31.37,1
-0.7703344,3.7181952,8.067263,-0.006414085,0.005192355,-0.0036651916,-15.573,29.493,-31.37,1
-1.0001777,3.7660792,8.125322,-0.03359759,-0.0018325958,-0.014966198,-15.573,29.493,-31.37,1
-0.8451532,3.6882677,8.345589,-0.025350908,0.01038471,0.017104227,-15.573,29.493,-31.37,1
-1.0606314,3.6589386,8.462905,-0.0143553335,0.0143553335,-0.029626964,-15.573,29.493,-31.37,1
-1.0289081,3.7732618,8.139688,0.033292156,0.028099801,-0.01160644,-15.573,29.493,-31.37,1
-0.83018947,3.6924577,8.182184,0.03756821,0.011301007,0.01985312,-15.573,29.493,-31.37,1
-0.58897364,3.6607344,8.144476,0.008857546,-0.090713486,0.032986723,-15.266,29.493,-31.37,1
-0.9175778,3.7349546,8.366538,-0.009162978,-0.090713486,-0.031154128,-15.266,29.493,-31.37,1
-0.90021986,3.8953662,8.169615,0.017104227,-0.07666359,-0.0571159,-15.266,29.493,-31.37,1
-0.9451111,3.7469256,8.268375,-0.0033597588,-0.05375614,-0.014966198,-15.266,29.493,-31.37,1
-0.7673417,3.793014,8.10557,0.03176499,-0.042760566,-0.03756821,-15.266,29.493,-31.37,1
-0.93134445,3.833117,8.474277,-0.03176499,-0.018936822,-0.07269296,-15.266,29.493,-31.37,1
-0.88645315,3.8522706,8.157045,0.04795292,-0.018936822,-0.033292156,-15.577,29.191,-31.37,1
-0.825401,3.809175,8.037933,0.048563786,-0.023823744,-0.03970624,-15.577,29.191,-31.37,1
-0.8379706,3.9893386,8.081029,0.053450707,-0.009468411,-0.040317107,-15.577,29.191,-31.37,1
-0.7769185,3.940856,8.039729,0.06536258,-0.01985312,-0.00061086525,-15.577,28.877,-31.37,1
-0.88405895,3.9917328,8.237251,0.007330383,-0.022907447,-0.03726278,-15.577,28.877,-31.37,1
-0.78170687,4.0922894,8.173206,0.022907447,-0.03023783,-0.025961773,-15.577,28.57,-31.37,1
-0.81642276,4.0880995,7.98586,0.018325957,0.0030543262,-0.020158553,-15.577,28.57,-31.37,1
-1.0366893,4.0156746,7.9278,0.040927973,0.07269296,-0.03176499,-15.577,28.57,-31.37,1
-0.78529817,4.220978,8.041525,0.013133603,0.042760566,-0.04337143,-15.577,28.57,-31.37,1
-1.0773908,4.2898107,8.130709,0.008246681,0.025961773,-0.05375614,-15.245,28.57,-31.37,1
-0.70509243,4.2143936,7.7889366,0.021380283,-0.009773844,-0.049480084,-14.935,28.57,-31.37,1
-1.2132617,3.9737763,7.8709383,0.005497787,-0.0580322,-0.07819075,-14.935,28.57,-31.37,1
-0.7691373,3.8827965,7.8092875,-0.04184427,-0.064446285,-0.056199603,-14.935,28.57,-31.37,1
-1.5849615,4.018069,8.1642275,-0.063224554,-0.009468411,-0.13561209,-14.935,28.57,-31.37,1
-1.0265139,3.8905778,8.559271,-0.102319926,-0.02565634,-0.03726278,-14.935,28.57,-31.37,1
-1.1127052,4.1305966,8.103176,-0.025961773,-0.028710667,-0.07788532,-14.935,28.57,-31.37,1
-1.0372878,3.8732197,8.327632,-0.037873644,-0.06658431,-0.018936822,-14.935,28.57,-31.677,1
-0.9888053,3.7900212,7.9792757,0.025350908,-0.04642576,-0.005497787,-14.935,28.57,-31.677,1
-1.0570401,3.965995,8.098986,-0.061086524,-0.071776666,-0.047647487,-15.251,28.57,-31.677,1
-0.9211691,4.0294414,7.9972324,0.009162978,-0.03634648,0.013133603,-15.251,28.57,-31.677,1
-0.53091425,4.035427,7.984064,-0.009468411,-0.054061573,0.0143553335,-15.251,28.872,-31.677,1
-1.0414777,3.9516299,7.7009497,0.035430185,-0.054061573,-0.025045475,-15.554,28.872,-31.677,1
-0.6003461,3.9576154,7.8326306,-0.038179077,-0.051923547,-0.0036651916,-15.554,28.872,-31.979,1
-1.0540473,3.8115692,8.224682,-0.064446285,-0.03726278,-0.036957346,-15.554,28.872,-31.979,1
-0.62249243,3.888782,7.270592,-0.0580322,0.0012217305,0.04337143,-15.554,28.872,-31.979,1
-0.9163807,3.241749,9.469068,-0.37904188,-0.01863139,0.004581489,-15.554,29.209,-31.979,1
-0.61530983,3.7834373,7.8793178,0.04062254,-0.055588737,-0.013744468,-15.554,29.553,-31.637,1
-0.8888474,3.2609026,8.564658,-0.03481932,-0.03756821,-0.008857546,-15.554,29.898,-31.637,1
-0.6979098,3.4985273,8.079233,-0.04795292,-0.049480084,-0.021991149,-15.554,29.898,-31.637,1
-0.9391256,3.256713,8.508394,-0.06994407,0.04062254,-0.02321288,-15.554,30.204,-31.637,1
-0.8110358,3.2956185,8.151658,-0.064446285,-0.040317107,-0.0067195175,-15.554,30.204,-31.637,1
-0.6925228,3.3482912,8.197148,-0.064751714,0.030848695,0.007330383,-15.873,30.204,-31.637,1
-0.45968673,3.2674868,8.438962,-0.12522738,0.1441642,0.043676864,-15.873,30.506,-31.637,1
-1.1599907,3.256713,8.437765,0.07544186,0.3662137,0.0009162979,-15.873,30.833,-31.637,1
-1.2395979,3.2920272,7.892486,0.17012598,0.35063666,0.01038471,-15.266,30.833,-31.637,1
-1.3569138,3.405752,8.054094,0.11728613,0.16829337,-0.018020526,-14.617,30.833,-31.637,1
-1.5753847,3.58412,7.9421654,0.07452556,0.15943582,-0.03481932,-13.934,30.528,-31.324,1
-1.7190368,3.328539,8.196549,0.031154128,0.13530666,-0.012217305,-13.629,30.528,-31.324,1
-1.7992426,3.406949,8.389283,0.023518313,0.04428773,-0.02443461,-13.629,30.528,-31.324,1
-1.8507179,3.4446578,9.360131,-0.23090707,-0.45723262,-0.039095376,-13.325,30.191,-31.324,1
-1.6944963,3.502717,8.120534,-0.081855945,-0.14844026,0.020463986,-13.632,30.191,-31.324,1
-1.4460979,3.41892,8.0606785,-0.018325957,-0.07574729,0.03176499,-13.958,30.191,-31.324,1
-1.1959038,3.2136173,8.177995,-0.028099801,-0.14019357,-0.014049901,-13.958,30.502,-31.324,1
-1.2366052,3.2040405,8.624513,-0.09407325,-0.17562376,-0.03604105,-13.958,30.502,-31.324,1
-1.436521,3.3249476,8.407239,-0.05009095,-0.1563815,-0.05009095,-14.271,30.502,-31.625,1
-1.1587936,3.288436,8.077438,0.05131268,-0.005497787,-0.012217305,-14.271,30.502,-31.625,1
-1.0588357,3.2267854,8.328231,0.02443461,-0.011301007,-0.02687807,-14.572,30.804,-31.286,1
-1.38325,3.3782187,9.336788,0.01160644,-0.13561209,-0.08093964,-14.572,30.804,-31.286,1
-1.240795,3.2668881,8.063671,0.052534413,-0.047647487,0.003970624,-14.572,30.804,-31.286,1
-1.1851299,3.38181,8.170812,0.086132,0.11636983,-0.029626964,-14.572,30.804,-31.286,1
-1.411382,3.4805708,7.9212165,0.09315695,0.009773844,-0.059864793,-14.572,30.804,-31.286,1
-1.809418,3.3303347,9.238626,-0.267559,0.06078109,-0.03726278,-14.572,30.497,-31.286,1
-1.0606314,3.478775,7.7147164,-0.02687807,-0.08979719,0.02443461,-14.572,30.497,-31.597,1
-1.0546459,3.2112231,8.547898,-0.08032878,-0.094989546,0.030543262,-14.886,30.497,-31.597,1
-1.1959038,3.2231941,8.590994,-0.065973446,-0.13713925,-0.024129177,-14.886,30.805,-31.903,1
-1.0313023,3.1370027,8.417415,-0.051923547,-0.043066,-0.025961773,-15.188,30.805,-31.903,1
-0.9947908,3.2453403,8.598177,-0.033292156,-0.080634214,-0.038179077,-15.188,30.805,-31.593,1
-0.8888474,3.25372,7.8332295,0.08399397,-0.008857546,0.0061086523,-15.188,31.112,-31.262,1
-0.94570965,3.1615434,8.594585,-0.015882496,-0.029321533,-0.004886922,-15.188,31.112,-31.262,1
-0.86131406,3.3201592,8.4347725,0.032986723,-0.029932396,-0.02443461,-15.188,31.112,-31.262,1
-1.472434,3.0831332,8.664616,-0.0009162979,0.02687807,-0.06383542,-15.188,31.112,-31.262,1
-1.2252327,3.448249,8.005612,0.04428773,0.02321288,-0.040927973,-14.884,30.801,-31.262,1
-1.2413936,3.3129766,8.1959505,0.011301007,-0.024129177,-0.005497787,-14.884,30.801,-31.582,1
-1.0989386,3.341707,8.234857,-0.0036651916,-0.03023783,0.0009162979,-14.884,30.801,-31.582,1
-0.9959879,3.2495303,8.108562,0.009468411,0.0106901415,-0.020158553,-14.884,30.801,-31.265,1
-0.98341835,3.252523,8.451532,0.008552114,-0.053450707,-0.0106901415,-14.884,30.801,-31.265,1
-0.9487024,3.3997664,8.2516165,0.043066,-0.04917465,-0.063224554,-14.884,30.801,-31.584,1
-1.2892777,3.1549592,8.587403,-0.028710667,-0.061086524,-0.04062254,-14.884,30.801,-31.901,1
-0.9540894,3.3746274,8.310873,0.013439035,-0.038179077,-0.05589417,-15.187,30.801,-31.901,1
-1.3042414,3.2148144,8.529344,-0.040011674,-0.0076358155,-0.036957346,-15.187,30.801,-31.901,1
-1.0929531,3.2734723,8.319252,-0.067500606,-0.093462385,-0.018325957,-15.187,30.801,-31.901,1
-0.9876082,3.2860417,8.170812,-0.0070249503,-0.00580322,-0.011911872,-15.187,30.801,-31.584,1
-0.7751228,3.2202013,8.497621,0.00030543262,-0.00580322,0.00061086525,-15.187,30.801,-31.584,1
-0.85473,3.2070332,8.2115135,0.04153884,-0.017104227,-0.024129177,-15.187,30.801,-31.584,1
-0.8996213,3.210026,8.476072,-0.016493361,-0.047647487,-0.029321533,-15.187,30.801,-31.584,1
-1.086369,3.247136,8.352173,0.0125227375,0.01282817,-0.047647487,-15.187,30.801,-31.584,1
-1.0851719,3.3584664,7.391499,0.06383542,0.49174652,0.049480084,-15.187,30.801,-31.584,1
-0.6721721,3.228581,8.364143,0.032070424,0.050396383,-0.037873644,-15.515,30.801,-31.584,1
-0.9151836,3.3518825,8.258799,0.07147124,0.05009095,-0.022296581,-15.515,30.801,-31.901,1
-1.3413515,3.3566709,8.391078,0.098043874,0.11789699,-0.04428773,-15.515,30.801,-31.901,1
-1.2360066,3.477578,8.108562,0.09560041,0.1459968,0.029321533,-15.191,30.801,-31.901,1
-1.3880384,3.6296098,7.689577,0.21013765,0.26389378,-0.018020526,-14.845,30.493,-31.535,1
-1.5035586,3.7966053,6.965331,0.09468412,0.053450707,-0.04062254,-14.533,30.493,-31.201,1
-1.5652094,3.572149,8.757391,-0.10140363,-0.16676621,-0.041233405,-14.533,30.168,-31.201,1
-1.3946224,3.3333273,8.615535,-0.17073683,-0.22968534,-0.015577064,-14.533,30.168,-31.201,1
-1.1797429,3.2034419,8.438962,-0.17440203,-0.19975294,-0.022296581,-14.854,30.484,-31.201,1
-1.2515689,3.0891187,8.874108,-0.1151481,-0.106901415,-0.027488936,-15.162,30.789,-31.201,1
-0.88645315,3.0777464,9.004593,-0.13408493,-0.15088372,-0.01740966,-15.162,31.094,-31.201,1
-1.1013328,3.2004492,8.276156,0.029626964,-0.03940081,-0.050701816,-15.162,31.094,-31.201,1
-1.146224,3.0777464,8.597578,-0.028710667,0.011301007,-0.040927973,-15.162,31.094,-31.201,1
-0.8583213,3.2734723,7.85777,0.15668693,0.16646078,-0.061391957,-15.162,31.094,-31.201,1
-1.3652935,2.9706059,9.31105,-0.042455133,-0.036651913,-0.036957346,-15.162,31.094,-31.201,1
-1.644218,3.3584664,8.39048,0.08032878,0.106901415,-0.11911872,-14.836,31.094,-31.201,1
-1.9440918,3.6403837,7.3765354,0.08857546,0.19150625,-0.094989546,-14.532,30.793,-31.201,1
-1.5328877,3.359065,7.933786,0.015577064,-0.062308256,0.011301007,-14.215,30.793,-31.201,1
-1.0456676,3.3740287,8.516175,-0.04734206,-0.17012598,0.019547688,-14.215,30.793,-31.201,1
-0.8738836,3.2261868,8.55149,-0.009162978,-0.048563786,-0.04428773,-14.215,30.793,-31.201,1
-1.572392,3.5583823,7.8050976,0.1957823,0.18417588,-0.10781772,-14.215,30.793,-31.201,1
-1.8357542,3.4476504,8.221688,0.05131268,0.10354166,-0.044593163,-14.215,30.476,-31.201,1
-1.5580268,3.5865142,7.902063,0.09468412,0.112399206,-0.0036651916,-13.876,30.476,-31.201,1
-1.785476,3.555988,8.424597,0.042760566,0.10445796,-0.021685716,-13.876,30.154,-30.876,1
-2.067393,4.1718965,5.623381,0.12767084,0.07147124,-0.016187929,-13.571,30.154,-30.876,1
-2.0709844,3.58412,8.088212,0.00580322,0.007941248,-0.07849618,-13.571,30.154,-30.876,1
-1.5807717,3.4781766,8.234259,-0.04795292,-0.16187929,0.012217305,-13.571,30.154,-30.876,1
-1.6160861,3.5476084,8.416218,-0.13439035,-0.19853121,-0.008246681,-13.888,30.154,-30.876,1
-1.3838485,3.4751837,8.197746,-0.014966198,-0.14508049,0.05589417,-13.888,30.154,-30.876,1
-1.074398,3.1717186,8.835203,-0.15210545,-0.2312125,0.035430185,-14.213,30.465,-31.179,1
-1.079785,3.2932243,8.435371,-0.105068825,-0.19028452,-0.026267206,-14.213,30.465,-31.481,1
-1.2605472,3.198055,8.446145,-0.034513887,-0.06383542,-0.0061086523,-14.526,30.465,-31.481,1
-1.2479776,3.283049,8.188768,0.04795292,0.01160644,-0.020158553,-14.839,30.781,-31.481,1
-1.1174936,3.3195608,8.265982,0.03940081,0.009773844,-0.004886922,-14.839,30.781,-31.481,1
-1.0450691,3.4422636,6.566098,0.24312437,-0.06811147,0.002443461,-14.839,30.781,-31.481,1
-1.2300211,3.3291376,8.219295,0.058948494,0.06841691,-0.0027488936,-14.839,30.781,-31.793,1
-1.2060791,3.288436,8.516774,-0.03573562,-0.04886922,-0.011911872,-15.171,30.781,-31.793,1
-0.9355343,3.2112231,8.494628,0.0076358155,-0.018020526,-0.03940081,-15.171,30.781,-31.793,1
-1.2844892,3.3794158,8.236652,0.077579886,0.06627888,-0.028099801,-15.171,30.781,-31.793,1
-1.3569138,3.3931823,8.206725,0.02687807,0.016798794,-0.047036625,-15.171,30.781,-31.484,1
-1.4730326,3.5326445,7.8745294,0.04062254,0.008246681,-0.07422013,-14.859,30.781,-31.484,1
-1.6124948,3.1250317,9.178172,-0.19608775,-0.36193767,-0.116675265,-14.859,30.781,-31.484,1
-1.168969,3.264494,8.38629,-0.042760566,-0.0421497,0.01160644,-15.162,30.781,-31.484,1
-1.0348936,3.0897174,8.68796,-0.048563786,-0.0143553335,-0.018325957,-15.162,30.781,-31.484,1
-1.2892777,3.2094274,8.558074,0.02076942,-0.041233405,-0.04642576,-15.162,30.781,-31.484,1
-1.3144168,3.5116954,5.8933277,0.20891592,-0.038179077,-0.01740966,-15.162,30.781,-31.484,1
-1.2425907,3.4326868,8.197746,0.10781772,0.22082779,0.0070249503,-15.162,30.781,-31.179,1
-1.2072762,3.1238346,8.76996,-0.028710667,-0.038179077,-0.0076358155,-15.162,30.781,-31.179,1
-1.3545196,3.3955765,8.224682,0.04184427,0.009468411,-0.039095376,-15.162,30.781,-31.179,1
-1.3479356,3.465607,8.380304,0.055283304,0.016187929,-0.020158553,-15.162,30.781,-31.179,1
-1.3431472,3.4344823,8.313267,0.04886922,-0.00061086525,0.0070249503,-14.862,30.781,-31.179,1
-1.2186487,3.2794578,9.141062,-0.057421334,-0.16187929,0.022296581,-14.862,30.781,-31.179,1
-1.1097125,3.457826,8.146272,-0.025961773,-0.036957346,0.021380283,-14.862,30.781,-31.179,1
-1.079785,3.3506854,8.450933,-0.0030543262,-0.021380283,-0.011301007,-14.862,30.781,-31.179,1
-1.5640123,3.4003649,8.357559,-0.014049901,-0.059864793,-0.054061573,-14.862,30.781,-31.179,1
-1.210269,3.3728316,8.611345,-0.035430185,-0.08827003,-0.0009162979,-14.862,30.781,-31.179,1
-1.2216414,3.4644098,8.160038,0.0009162979,-0.04520403,-0.017715093,-14.862,30.781,-31.179,1
-1.270124,3.4207156,8.180987,0.014660766,-0.015577064,-0.033292156,-14.862,30.781,-31.179,1
-1.0708067,3.4153287,8.412626,-0.027488936,-0.08735373,-0.017104227,-15.168,30.781,-31.179,1
-1.1282675,3.4344823,8.054094,0.014049901,-0.034208454,-0.039095376,-15.168,30.781,-31.179,1
-1.2072762,3.3075895,8.599973,-0.06291912,-0.067500606,-0.021991149,-15.168,30.781,-31.179,1
-1.2162545,3.429694,8.139089,-0.0027488936,-0.015577064,-0.057421334,-15.168,30.781,-31.179,1
-1.1210849,3.2261868,8.271368,0.008246681,0.0106901415,-0.025045475,-15.168,30.781,-31.179,1
-1.1953052,3.4105403,8.594585,0.05467244,0.06505715,-0.059253927,-15.168,30.781,-31.483,1
-1.3395559,3.681085,8.087613,0.031154128,0.0036651916,-0.030543262,-15.168,30.474,-31.483,1
-1.377863,3.4051533,8.550891,-0.04062254,-0.17470746,-0.05681047,-15.168,30.474,-31.483,1
-0.96665895,3.5009215,8.016386,-0.018020526,0.004276057,-0.0070249503,-15.168,30.474,-31.483,1
-1.2437878,3.352481,8.107366,0.0021380284,-0.032375857,-0.0009162979,-15.168,30.474,-31.483,1
-1.2366052,3.417723,8.216302,-0.04550946,-0.077579886,-0.03726278,-15.168,30.474,-31.483,1
-1.1881226,3.2962172,8.630499,-0.077579886,-0.08979719,-0.031154128,-15.168,30.474,-31.483,1
-1.1228806,3.3327289,8.311471,0.0015271631,-0.069027774,-0.035124753,-15.168,30.775,-31.483,1
-1.0187328,3.108871,8.819042,-0.04734206,-0.11789699,0.00061086525,-15.489,30.775,-31.483,1
-0.93134445,3.1627405,8.439561,0.0012217305,-0.043676864,-0.011301007,-15.489,30.775,-31.483,1
-0.8924387,3.2315738,8.496424,0.015577064,0.0036651916,-0.03726278,-15.489,30.775,-31.483,1
-1.0887632,3.4159272,8.326435,0.035124753,-0.016798794,-0.009773844,-15.155,30.775,-31.483,1
-1.520318,3.1902738,9.598953,-0.28313604,0.11789699,-0.07880162,-15.155,30.775,-31.483,1
-1.0121487,3.41892,7.9834657,0.05131268,0.0290161,0.018325957,-15.457,30.775,-31.483,1
-1.2497733,3.277662,8.612542,0.02565634,0.025045475,-0.03604105,-15.457,30.775,-31.483,1
-1.0779893,3.489549,7.909844,0.08093964,0.06383542,0.03359759,-15.457,30.775,-31.483,1
-1.3724761,3.4835634,8.349778,-0.013439035,-0.06658431,-0.021380283,-15.148,30.467,-31.483,1
-1.1575965,3.4524388,8.486248,-0.018936822,-0.044593163,-0.030543262,-15.148,30.467,-31.483,1
-1.1965023,3.447052,8.218098,0.03481932,0.029932396,-0.022907447,-15.148,30.467,-31.483,1
-1.3311762,3.4991257,8.3312235,0.06566802,0.01740966,-0.036957346,-14.831,30.467,-31.483,1
-1.204882,3.590704,7.8128786,0.09407325,0.051923547,-0.03481932,-14.831,30.467,-31.175,1
-1.8495208,3.4021606,8.901043,-0.18692477,-0.042455133,-0.06872234,-14.506,30.155,-30.865,1
-1.2294226,3.5853171,8.453327,-0.08827003,-0.12950343,-0.007330383,-14.819,30.155,-30.865,1
-1.2384008,3.352481,8.570643,-0.03176499,-0.05589417,-0.04062254,-14.819,30.155,-31.196,1
-1.2072762,3.4278982,8.298902,0.02565634,-0.035124753,-0.061391957,-15.121,30.459,-31.196,1
-1.3718776,3.352481,8.39467,-0.022907447,-0.03390302,-0.052839845,-15.121,30.459,-31.196,1
-1.3509283,3.4997244,8.449138,0.01160644,-0.0421497,-0.039095376,-15.121,30.459,-31.498,1
-1.3245921,3.4979286,8.340201,0.011911872,-0.004886922,-0.03390302,-15.121,30.459,-31.498,1
-1.2258313,3.3770216,8.850166,-0.07941248,0.0143553335,-0.042760566,-15.121,30.459,-31.498,1
-1.3204023,3.4404678,8.465299,-0.0143553335,-0.009468411,-0.035430185,-15.121,30.459,-31.498,1
-1.4155718,3.4919431,8.383896,0.04428773,0.04795292,-0.021991149,-15.121,30.459,-31.498,1
-1.3916297,3.6954503,7.7949224,0.0870483,0.13041973,-0.022296581,-14.776,30.157,-31.498,1
-1.6130934,3.7110126,8.016984,-0.014660766,-0.028710667,-0.02107485,-14.443,30.157,-31.161,1
-1.6639702,3.4805708,8.931569,-0.09285152,0.111177474,-0.009162978,-14.443,30.157,-31.161,1
-1.1701661,3.4596214,8.545505,-0.06688975,-0.14508049,0.0012217305,-14.443,30.157,-31.161,1
-1.0564415,3.3883939,8.2354555,-0.024129177,-0.12950343,-0.004581489,-14.755,30.157,-31.488,1
-1.5436616,3.389591,8.581417,-0.054061573,-0.08460484,-0.052534413,-14.755,30.157,-31.488,1
-1.4305356,3.4626143,8.387487,-0.002443461,-0.03145956,-0.07238753,-14.755,30.157,-31.488,1
-1.4550761,3.5248635,8.281544,0.027183503,-0.002443461,-0.040317107,-14.755,30.157,-31.806,1
-1.4891934,3.630807,8.042722,0.0729984,0.09254608,-0.026267206,-14.755,30.157,-31.477,1
-1.5741876,3.4757824,8.482059,0.06658431,0.1328632,-0.02565634,-14.431,30.157,-31.159,1
-1.7543513,3.8720226,6.1519012,0.098043874,0.1957823,-0.02321288,-14.06,30.157,-31.159,1
-2.112883,3.6469676,7.892486,0.0870483,0.42302418,0.0036651916,-14.06,29.83,-31.159,1
-1.6328455,3.7325604,8.081628,-0.076052725,-0.24617869,-0.034208454,-14.06,29.83,-31.159,1
-1.460463,3.4201171,8.440758,-0.10873401,-0.183565,0.04886922,-14.06,30.16,-31.159,1
-1.3096284,3.4967315,8.023568,-0.0021380284,-0.09621128,0.011301007,-14.06,30.16,-31.159,1
-1.2791022,3.3327289,8.528147,-0.087659165,-0.1740966,-0.009468411,-14.369,30.16,-31.159,1
-1.2378023,3.3632548,8.918402,-0.08307768,-0.13347405,-0.031154128,-14.369,30.16,-31.159,1
-1.1546037,3.5128925,8.219893,0.01863139,-0.07086037,0.002443461,-14.677,30.47,-31.159,1
-1.0133458,3.406949,8.191162,-0.011911872,-0.106901415,0.019547688,-14.993,30.47,-31.159,1
-1.0097545,3.3752258,8.385692,0.012217305,-0.0143553335,-0.02565634,-14.993,30.47,-31.159,1
-1.2000936,3.3740287,8.343793,0.0067195175,-0.019547688,-0.026267206,-14.993,30.47,-31.159,1
-0.9792285,3.4596214,8.078635,0.059864793,0.01863139,-0.0070249503,-14.993,30.47,-31.486,1
-1.067814,3.7217865,5.2726307,0.18692477,-0.054367006,-0.03176499,-14.993,30.47,-31.486,1
-1.3467385,3.614646,8.025364,0.02321288,0.105374254,0.02107485,-15.298,30.47,-31.486,1
-1.0726024,3.2429461,8.699332,-0.035124753,-0.07880162,0.0021380284,-15.298,30.47,-31.486,1
-1.1097125,3.4183214,8.146272,-0.022602014,-0.03848451,-0.036957346,-15.298,30.47,-31.486,1
-1.1372458,3.5619736,8.330027,-0.014660766,-0.008246681,-0.019242255,-15.298,30.47,-31.486,1
-1.1007342,3.4165258,8.328829,0.027794369,-0.024129177,-0.0033597588,-15.298,30.47,-31.797,1
-1.0708067,3.4518404,8.509591,-0.03634648,-0.080634214,-0.014660766,-15.298,30.47,-31.797,1
-1.264737,3.5248635,8.20433,0.028710667,0.06688975,-0.038789943,-15.298,30.47,-31.492,1
-1.2360066,3.4500446,8.418014,0.020463986,0.056505036,-0.012217305,-15.298,30.47,-31.492,1
-1.3652935,3.6487634,7.797915,0.042455133,0.03756821,-0.049785517,-14.984,30.47,-31.175,1
-1.3533225,3.6343982,7.6572556,0.017715093,0.02076942,-0.03176499,-14.984,30.166,-31.175,1
-1.2006922,3.4919431,8.1558485,0.01985312,-0.007330383,-0.02076942,-14.984,30.166,-31.529,1
-1.1300632,3.50571,8.1797905,-0.002443461,-0.03726278,-0.016798794,-14.984,30.166,-31.529,1
-1.3000516,3.5865142,8.031948,0.021991149,-0.013744468,-0.03390302,-14.984,30.166,-31.529,1
-1.2372037,3.4901476,8.028955,0.042455133,0.0852157,-0.014660766,-14.984,30.166,-31.219,1
-1.2892777,3.5625722,8.194754,0.06566802,0.092240654,-0.038179077,-14.984,30.166,-31.219,1
-1.4030021,3.3261447,9.276933,-0.15882497,-0.077579886,0.022907447,-14.678,30.166,-31.219,1
-1.086369,3.477578,8.452729,-0.062002823,-0.07574729,-0.035124753,-14.678,30.166,-31.219,1
-1.4772224,3.4877534,8.567052,-0.009162978,0.027794369,-0.04062254,-14.678,30.166,-31.219,1
-1.4975731,3.5290532,8.248025,0.04520403,0.0729984,-0.017715093,-14.678,30.166,-31.219,1
-1.3467385,3.4674027,9.279925,-0.03573562,-0.3118467,-0.032070424,-14.678,30.166,-31.219,1
-1.2497733,3.6314054,8.169615,-0.025045475,-0.034513887,0.0076358155,-14.678,30.166,-31.219,1
-1.389834,3.596091,8.283937,0.029626964,-0.00061086525,-0.010079277,-14.678,30.166,-31.219,1
-1.8124107,3.6391866,7.900267,0.03145956,0.027794369,-0.09162979,-14.678,30.166,-31.219,1
-1.2455834,3.5535939,8.117541,0.005497787,-0.051923547,-0.018020526,-14.988,30.166,-31.219,1
-1.1318588,3.5140896,8.34918,-0.01282817,-0.076052725,-0.03176499,-14.988,30.166,-31.219,1
-1.2264298,3.5446155,8.240244,-0.0036651916,-0.10629055,-0.029626964,-14.988,30.166,-31.219,1
-1.3102269,3.4685998,8.076241,-0.007330383,-0.055283304,-0.02687807,-14.988,30.166,-31.558,1
-1.4598645,3.5446155,8.121132,-0.014049901,-0.00030543262,-0.050701816,-14.988,30.166,-31.558,1
-1.1761516,3.4973302,8.1480665,0.004581489,-0.0106901415,-0.016798794,-14.988,30.166,-31.558,1
-1.2401965,3.482965,8.180388,-0.020158553,-0.04642576,-0.03176499,-14.988,30.471,-31.558,1
-1.1468226,3.3848026,8.528147,-0.014660766,-0.052534413,-0.03268129,-14.988,30.471,-31.222,1
-1.5855601,3.2603042,9.976639,-0.17806722,0.49418998,-0.007941248,-14.988,30.471,-31.222,1
-0.86610246,3.4021606,8.338406,0.010079277,-0.06078109,0.010079277,-15.289,30.471,-31.222,1
-1.1593921,3.3626564,8.376115,0.020158553,-0.019547688,-0.02076942,-15.289,30.471,-31.222,1
-1.6352397,3.436278,8.433576,0.04062254,0.05589417,-0.059864793,-15.289,30.471,-31.222,1
-1.513734,3.7104142,8.01459,0.058337633,0.1469131,-0.010995574,-14.973,30.471,-31.222,1
-1.4945804,3.6134489,8.276755,0.02565634,-0.00580322,0.028710667,-14.66,30.471,-31.222,1
-1.2443863,3.555988,8.204929,0.030543262,0.025045475,0.032375857,-14.329,30.163,-31.222,1
-1.3587095,3.8175547,7.4788876,0.20616703,0.21013765,-0.04428773,-14.329,30.163,-31.222,1
-1.9267339,3.8085763,7.675811,0.055588737,0.40194935,0.009773844,-14.329,30.163,-31.222,1
-1.0779893,3.5853171,8.843582,-0.07238753,-0.2125811,0.026267206,-14.329,30.163,-31.222,1
-1.3000516,3.6008794,8.180987,-0.06291912,-0.14294247,-0.003970624,-14.329,30.163,-30.912,1
-1.3347675,3.6649241,7.9026613,0.02107485,-0.044898596,0.008857546,-14.329,30.163,-30.912,1
-1.1917139,3.1860838,9.137471,-0.17195857,-0.22082779,-0.006414085,-14.639,30.163,-31.257,1
-1.2467805,3.445855,8.125322,0.002443461,-0.058948494,-0.071776666,-14.639,30.163,-31.257,1
-1.4221559,3.5284548,8.040926,-0.032070424,-0.033292156,-0.05589417,-14.639,30.163,-31.257,1
-1.2234371,3.4889505,8.153454,0.020158553,0.03970624,-0.02076942,-14.962,30.163,-31.257,1
-1.3030443,3.318962,8.50181,-0.024129177,-0.06994407,-0.06627888,-14.962,30.163,-31.257,1
-1.0109516,3.465607,8.377312,0.015271631,-0.05589417,-0.02321288,-14.962,30.163,-31.257,1
-1.283292,3.520075,8.441956,0.0067195175,-0.08368854,-0.02076942,-14.962,30.163,-31.257,1
-1.6274586,3.2752678,9.487024,-0.29779682,0.062308256,-0.101098195,-14.962,30.163,-31.561,1
-0.8122329,3.518878,8.015189,-0.036957346,-0.08552113,0.02321288,-14.962,30.163,-31.561,1
-1.0839748,3.4171243,8.2276745,0.01985312,-0.0015271631,-0.010995574,-14.962,30.163,-31.561,1
-1.3521254,3.4877534,8.419808,-0.013439035,-0.01282817,-0.03481932,-14.962,30.163,-31.26,1
-1.5334862,3.5140896,8.296508,-0.025961773,-0.020158553,-0.040927973,-14.962,30.163,-31.26,1
-1.2443863,3.4997244,8.043321,0.02565634,0.005192355,0.00061086525,-14.962,30.163,-31.26,1
-0.90620536,3.493739,8.22528,-0.008857546,-0.025045475,-0.010079277,-14.962,30.163,-31.26,1
-1.0953473,3.4572272,8.116942,0.03390302,-0.006414085,-0.026267206,-14.962,30.163,-31.26,1
-1.6136919,3.6230257,8.0367365,-0.00580322,-0.06719518,-0.054061573,-14.962,30.163,-31.26,1
-1.2294226,3.655946,7.9822683,0.08124508,-0.004581489,-0.023518313,-14.962,30.163,-31.26,1
-1.2401965,3.3848026,8.328231,0.028710667,-0.03359759,-0.0018325958,-14.962,30.163,-31.62,1
-1.4987702,3.38181,8.20433,0.0021380284,-0.032986723,-0.03573562,-14.962,30.163,-31.62,1
-1.2802993,3.618836,8.025963,-0.0027488936,-0.07880162,-0.0076358155,-14.962,30.163,-31.62,1
-1.0708067,3.352481,8.902241,-0.086437434,-0.15302174,0.0070249503,-14.962,30.163,-31.62,1
-0.96067345,3.426701,8.264784,0.016493361,-0.03970624,-0.02107485,-14.962,30.163,-31.62,1
-0.9888053,3.4045548,8.025364,0.031154128,-0.031154128,-0.056199603,-14.962,30.48,-31.62,1
-1.1857284,3.46022,8.289924,-0.0106901415,-0.04642576,-0.043982297,-14.962,30.48,-31.62,1
-0.9816227,3.4332852,8.805275,0.019547688,-0.07788532,-0.059253927,-15.264,30.48,-31.298,1
-1.2264298,3.265691,9.002198,-0.07147124,-0.5335908,-0.09865474,-15.264,30.48,-31.298,1
-1.0815806,3.4823663,8.308478,0.019547688,0.095294975,-0.017715093,-15.264,30.48,-31.298,1
-1.3605051,3.4021606,8.591593,-0.00580322,-0.027183503,-0.04795292,-15.264,30.48,-31.298,1
-1.3599066,3.5883098,8.11395,0.058948494,0.07880162,-0.044898596,-15.264,30.48,-31.298,1
-1.4526819,3.527856,8.109161,0.0018325958,0.07147124,-0.0290161,-15.264,30.48,-31.602,1
-1.4784195,3.626617,7.9930425,0.06383542,0.058337633,-0.01282817,-14.932,30.168,-31.602,1
-1.4526819,3.5853171,8.20433,0.067500606,0.081855945,-0.016493361,-14.932,30.168,-31.602,1
-1.763928,4.115034,5.385158,0.1563815,0.0061086523,-0.053450707,-14.605,30.168,-31.285,1
-1.5622166,3.7020345,8.343793,-0.05467244,0.029932396,-0.03023783,-14.605,30.168,-31.285,1
-1.5251064,3.5553896,8.180987,0.0421497,0.02321288,-0.006414085,-14.605,30.168,-31.285,1
-1.5592239,3.6044707,7.98167,-0.0061086523,-0.044593163,-0.03940081,-14.605,30.168,-31.285,1
-1.733402,3.8097734,8.064868,0.055588737,0.03176499,-0.06566802,-14.605,30.168,-31.285,1
-1.3305776,3.5236664,8.437765,0.00580322,-0.052534413,-0.003970624,-14.93,30.168,-31.285,1
-1.3509283,3.5936968,8.049306,0.04337143,-0.08032878,0.011301007,-14.93,30.168,-31.285,1
-1.1605892,3.639785,8.118738,0.014966198,-0.0711658,-0.004886922,-14.93,30.168,-31.285,1
-1.3126211,3.6768951,8.2354555,-0.0012217305,-0.04917465,-0.043066,-14.93,30.168,-31.285,1
-1.3215994,3.7044287,7.958925,0.0421497,-0.014660766,-0.028710667,-14.93,30.168,-31.285,1
-1.3060371,3.6194344,8.042722,0.011301007,-0.016798794,-0.032070424,-14.93,29.864,-31.285,1
-1.3150153,3.669114,8.10138,0.010079277,-0.029932396,-0.057726767,-14.93,29.864,-31.285,1
-1.5089456,3.743933,8.182783,0.008857546,-0.012217305,-0.04428773,-14.93,29.864,-31.285,1
-1.3868413,3.679888,8.298902,0.0027488936,-0.02107485,-0.028710667,-14.617,29.864,-31.285,1
-1.2886791,3.697246,8.070854,-0.014966198,-0.041233405,-0.00061086525,-14.617,29.864,-31.285,1
-1.3066356,3.6343982,8.415619,-0.03023783,-0.08246681,-0.012217305,-14.617,29.864,-31.285,1
-1.4347254,3.6774938,8.16722,-0.022907447,-0.09254608,-0.027794369,-14.617,29.864,-31.285,1
-1.2138603,3.6876693,8.028357,-0.05131268,-0.0888809,-0.01038471,-14.617,29.864,-31.285,1
-1.1569979,3.6631286,8.137892,0.00061086525,-0.058337633,-0.018325957,-14.617,29.864,-31.285,1
-0.9744401,3.518878,8.207922,0.049785517,0.022602014,0.007941248,-14.918,29.864,-31.285,1
-1.1414356,3.5817258,8.343793,0.06169739,0.021380283,-0.040317107,-14.918,29.864,-31.285,1
-1.7226281,3.6302083,8.4664955,-0.062308256,-0.22113322,-0.10842858,-14.918,29.864,-31.285,1
-1.0582372,3.7229836,8.24204,-0.054061573,0.019242255,0.021991149,-14.918,29.864,-31.285,1
-1.234211,3.6212301,8.071452,0.0012217305,-0.04184427,-0.018936822,-15.234,29.864,-31.285,1
-1.2300211,3.6457705,7.8583684,0.007941248,0.002443461,0.0143553335,-15.234,29.864,-31.285,1
-1.2982559,3.4853592,8.2516165,-0.09193522,-0.07880162,-0.005497787,-15.234,29.864,-31.285,1
-1.3359646,3.4512417,8.653842,-0.08155051,-0.12980886,-0.008246681,-14.933,29.864,-31.285,1
-1.1049241,3.3973722,8.261791,-0.008857546,-0.05131268,-0.0106901415,-14.933,29.864,-31.285,1
-1.003769,3.4278982,8.285135,-0.01863139,-0.02565634,-0.013744468,-15.248,30.172,-31.285,1
-1.4329298,3.4769795,7.903858,0.024129177,0.007941248,-0.03940081,-15.248,30.172,-31.285,1
-0.98341835,3.4093432,8.306683,-0.04184427,-0.042455133,0.031154128,-15.248,30.172,-31.285,1
-1.0151415,3.383007,8.325836,-0.06872234,-0.07513642,-0.020463986,-14.933,30.172,-31.285,1
-0.8924387,3.3464954,8.645462,0,-0.038179077,-0.04184427,-14.933,30.511,-31.285,1
-1.1115081,3.3722332,8.228272,0.02443461,-0.005497787,-0.04642576,-14.933,30.511,-31.285,1
-1.1300632,3.4368765,8.327632,0.019547688,-0.007941248,-0.058337633,-14.933,30.511,-31.285,1
-1.3670892,3.567959,8.355764,-0.089186326,0.5357288,0.0421497,-15.278,30.511,-31.285,1
-0.8415619,3.5895069,8.128913,0.032070424,-0.019242255,-0.03726278,-15.278,30.511,-31.285,1
-1.1486182,3.3979707,8.197148,0.058643065,-0.019547688,-0.017715093,-15.278,30.511,-31.285,1
-1.1857284,3.5104983,8.052299,0.01740966,-0.0070249503,-0.033292156,-15.278,30.511,-31.285,1
-1.0103531,3.4584243,8.280347,-0.010079277,-0.033292156,-0.015577064,-15.278,30.511,-31.285,1
-1.2569559,3.3913867,8.523956,-0.027794369,-0.040011674,-0.029626964,-15.278,30.511,-31.285,1
-1.0767922,3.371036,8.334815,-0.016798794,-0.046731193,-0.009162978,-15.278,30.511,-31.285,1
-1.1109096,3.4039562,8.3868885,0.013744468,-0.018020526,-0.03390302,-15.278,30.511,-31.285,1
-1.2910733,3.5140896,8.270171,0.015271631,-0.03726278,-0.034513887,-15.278,30.511,-31.285,1
-1.1659763,3.4644098,8.270171,-0.025961773,-0.020158553,-0.017715093,-15.278,30.511,-31.285,1
-0.99419224,3.447052,8.14687,0.02076942,0.008246681,-0.028099801,-15.278,30.207,-31.285,1
-1.2270284,3.6703112,5.6425347,0.21288654,-0.079107046,-0.03481932,-15.278,30.207,-31.285,1
-1.246182,3.7487214,7.4603324,0.08368854,0.18387043,-0.014660766,-15.278,30.207,-31.285,1
-1.1318588,3.3345244,8.6574335,-0.020158553,-0.021685716,-0.01740966,-15.278,30.207,-31.285,1
-0.9564836,3.4805708,8.220491,0.03970624,-0.03970624,-0.027183503,-15.278,30.207,-31.285,1
-1.0636241,3.5511997,8.205527,0.015577064,-0.018936822,-0.03940081,-15.278,30.207,-31.285,1
-1.1797429,3.549404,8.104971,0.017104227,-0.04153884,-0.03573562,-15.278,30.207,-31.285,1
-1.347337,3.5218706,8.196549,-0.02107485,-0.058337633,-0.01282817,-15.278,30.207,-31.285,1
-0.83856916,3.354875,8.455722,-0.0021380284,0.061086524,-0.01740966,-15.278,30.207,-31.285,1
-1.4107834,3.6326025,8.08462,0.081855945,0.12156218,-0.025350908,-15.278,30.207,-31.285,1
-1.596334,3.5966895,8.113351,0.047036625,0.11575896,-0.035124753,-14.958,30.207,-31.285,1
-1.6124948,3.6990416,8.087015,0.06383542,0.16523905,-0.018936822,-14.611,30.207,-31.285,1
-1.3162124,3.6260185,8.01878,0.09101892,0.10781772,0.024129177,-14.283,29.893,-31.285,1
-1.3186066,3.5571852,9.156625,-0.036651913,-0.55771995,0.0009162979,-14.283,29.893,-31.285,1
-1.352724,3.596091,8.236652,-0.059864793,-0.09254608,0.0070249503,-14.283,29.893,-31.285,1
-1.2024878,3.6044707,8.237849,-0.0012217305,-0.057421334,0.0061086523,-14.633,29.893,-31.285,1
-1.3072342,3.558981,8.119935,-0.021991149,-0.12980886,-0.043676864,-14.633,29.893,-31.587,1
-1.2880806,3.5715504,8.330027,0.00580322,-0.073303826,-0.07269296,-14.633,29.893,-31.587,1
-1.3174095,3.6254199,8.222287,0.019547688,-0.030848695,-0.051618114,-14.633,29.893,-31.587,1
-1.3251907,3.679888,5.8909335,0.1469131,0.06566802,0.02443461,-14.633,29.893,-31.587,1
-1.2030864,3.6379895,8.445546,-0.014966198,0.11728613,-0.053145275,-14.955,29.893,-31.587,1
-1.2737153,3.4727895,8.295909,0.0015271631,-0.058643065,-0.04184427,-14.955,29.893,-31.587,1
-1.3545196,3.5984852,8.063671,0.003970624,-0.018325957,-0.050396383,-14.955,29.893,-31.587,1
-1.6172832,3.6302083,8.288128,-0.0076358155,-0.008857546,-0.06078109,-14.955,29.893,-31.587,1
-1.3581109,3.6463692,7.99005,0.054367006,-0.005497787,-0.01038471,-14.955,29.893,-31.274,1
-1.210269,3.6008794,7.800309,0.046120327,-0.008857546,0.0030543262,-14.649,29.893,-31.274,1
-1.4999673,3.5745432,8.26239,-0.01863139,-0.03390302,-0.022602014,-14.649,29.893,-31.274,1
-1.1546037,3.675698,8.317456,-0.00580322,-0.059253927,-0.018020526,-14.649,29.893,-31.274,1
-1.1558008,3.702633,8.157643,0.013133603,-0.04795292,-0.03390302,-14.649,29.893,-31.274,1
-1.1599907,3.7283707,8.24204,0.058948494,-0.17715092,-0.02076942,-14.649,29.893,-31.274,1
-1.021127,3.7726634,7.911041,-0.03390302,-0.06291912,0.004581489,-14.997,29.893,-31.274,1
-1.1372458,3.3734303,8.5622635,-0.018020526,-0.04428773,0.011301007,-15.304,29.893,-31.274,1
-1.002572,3.502717,8.153454,-0.014660766,-0.07086037,0.0012217305,-15.304,30.2,-31.274,1
-1.0953473,3.5751417,8.288128,-0.004276057,-0.027183503,-0.030848695,-15.304,30.2,-31.274,1
-1.1791444,3.606865,8.163031,0.056505036,-0.03481932,-0.020158553,-15.304,30.2,-31.274,1
-1.1617863,3.5936968,7.849989,0.06047566,0.009468411,-0.00061086525,-15.304,30.2,-31.274,1
-1.0905589,3.5984852,8.03554,0.011911872,-0.002443461,-0.0106901415,-15.304,30.2,-31.274,1
-1.3198037,3.614646,8.098388,-0.045814894,-0.037873644,-0.036957346,-15.304,30.2,-31.274,1
-1.1504139,3.5003228,8.380903,-0.036957346,-0.0729984,-0.007941248,-15.304,30.2,-31.274,1
-1.0857705,3.4835634,8.374319,-0.009773844,-0.014966198,-0.02565634,-15.304,30.2,-31.274,1
-1.1414356,3.5110967,8.3629465,-0.025045475,-0.061391957,0.0036651916,-15.304,30.2,-31.274,1
-0.79726917,3.7427359,5.053561,0.38881573,-0.0720821,0.035430185,-15.304,30.2,-31.608,1
-0.9475053,3.6523547,8.022371,0.035430185,0.122783914,-0.013744468,-15.304,30.2,-31.608,1
-1.0127473,3.3626564,8.843582,-0.044593163,-0.081855945,-0.009162978,-15.629,30.2,-31.608,1
-1.0235212,3.513491,8.118738,-0.002443461,-0.06261369,-0.02107485,-15.629,30.2,-31.608,1
-1.0043676,3.459023,8.514978,-0.01282817,-0.029626964,-0.027488936,-15.629,30.2,-31.265,1
-1.0570401,3.5128925,8.239047,0.014049901,-0.03573562,-0.047647487,-15.629,30.2,-31.265,1
-0.97025025,3.515885,8.34499,-0.020158553,-0.043066,-0.017715093,-15.629,30.2,-31.576,1
-0.96067345,3.4105403,8.517372,0.03726278,-0.034208454,-0.030848695,-15.289,30.2,-31.576,1
-1.0893618,3.608062,8.249821,0.04917465,-0.0033597588,-0.040011674,-15.289,30.2,-31.576,1
-1.1857284,3.7181952,8.076839,0.10567969,0.086437434,-0.032070424,-15.289,30.2,-31.576,1
-1.1228806,3.788824,8.029554,0.09743301,0.08002335,-0.03359759,-14.973,29.872,-31.245,1
-1.2240356,3.8271315,8.059482,0.06719518,0.04550946,-0.03573562,-14.973,29.872,-31.245,1
-1.4371196,3.9851487,5.6580973,0.032375857,-0.0033597588,0.016493361,-14.672,29.556,-30.937,1
-1.1504139,3.822343,8.292317,-0.0012217305,0.06261369,-0.006414085,-14.672,29.556,-30.937,1
-1.1061212,3.7002387,8.253412,0.026572637,-0.046731193,-0.0067195175,-14.99,29.556,-31.253,1
-1.13964,3.5978866,8.287529,-0.039095376,-0.11881329,-0.022296581,-15.299,29.556,-31.253,1
-1.027711,3.6721067,8.3390045,-0.011911872,-0.050396383,-0.026267206,-15.299,29.556,-31.253,1
-1.246182,3.764882,8.300697,0.004581489,-0.029932396,-0.03176499,-15.299,29.556,-31.253,1
-1.2252327,3.6457705,8.382699,-0.036957346,0.38148534,0.031154128,-15.299,29.556,-31.253,1
-1.0342951,3.674501,8.387487,0.02076942,-0.018325957,-0.057421334,-15.299,29.556,-31.253,1
-1.2348095,3.7966053,8.104373,0.010995574,-0.014966198,-0.032986723,-15.299,29.556,-31.253,1
-1.4012065,3.675698,8.986037,-0.14782938,-0.22785273,-0.12064589,-15.299,29.556,-31.253,1
-0.86370826,3.8025908,7.8422074,0.020158553,0.02687807,0.009162978,-15.299,29.556,-31.253,1
-1.1857284,3.5655649,8.304289,-0.059253927,-0.108123146,-0.015271631,-15.299,29.556,-31.253,1
-1.1803415,3.6020765,8.354567,-0.03573562,-0.056199603,-0.027794369,-15.299,29.556,-31.253,1
-1.1677719,3.6248214,7.9888525,-0.025961773,-0.047036625,-0.038179077,-15.299,29.859,-31.253,1
-1.192911,3.5930982,7.9266033,-0.035124753,-0.05467244,0.0015271631,-15.299,29.859,-30.941,1
-1.1139023,3.4332852,8.394072,-0.16646078,-0.08735373,0.033292156,-15.299,29.859,-30.941,1
-0.60573304,3.5212722,8.201937,-0.05497787,-0.106595986,0.022602014,-15.299,30.18,-30.941,1
-0.87208796,3.4159272,8.154651,0.030848695,0.0061086523,0.00061086525,-15.299,30.18,-30.941,1
-0.830788,3.4201171,8.276755,0.029932396,-0.016798794,0.0033597588,-15.299,30.488,-30.941,1
-0.7589619,3.4835634,8.132504,-0.01038471,-0.045814894,-0.005192355,-15.299,30.488,-30.941,1
-0.95109665,3.176507,8.5886,-0.042455133,-0.013439035,-0.0125227375,-15.299,30.488,-30.941,1
-1.0271125,3.3686419,8.968679,-0.009162978,-0.030848695,-0.08124508,-15.299,30.488,-30.941,1
-0.997185,3.5691562,6.069301,0.1740966,0.14263703,0.05100725,-15.299,30.488,-31.263,1
-0.6159084,3.3734303,8.404845,0.01038471,0.057726767,0.01282817,-15.299,30.488,-31.263,1
-1.1911154,3.489549,8.4664955,-0.0143553335,-0.02321288,-0.030543262,-15.623,30.488,-31.568,1
-0.8798691,3.2154129,8.636484,-0.021991149,-0.064751714,-0.013744468,-15.623,30.488,-31.568,1
-0.98820674,3.4452562,8.067862,0.05681047,-0.005497787,-0.05375614,-15.623,30.488,-31.568,1
-1.192911,3.17531,8.7771435,-0.08460484,-0.03726278,-0.042455133,-15.623,30.488,-31.568,1
-1.146224,3.4488475,8.356961,-0.00030543262,-0.027488936,-0.05375614,-15.623,30.488,-31.568,1
-1.1869255,3.3734303,8.312668,0.057726767,0.077579886,-0.04337143,-15.623,30.488,-31.568,1
-1.122282,3.478775,8.549694,0.019547688,0.035124753,-0.03176499,-15.319,30.488,-31.568,1
-1.459266,3.3889925,8.730456,-0.16462818,0.07819075,0.00030543262,-15.319,30.488,-31.568,1
-0.98461545,3.469797,8.367136,-0.06627888,-0.077579886,-0.012217305,-15.319,30.488,-31.228,1
-0.9032126,3.484162,8.061875,0.02443461,-0.043676864,-0.03145956,-15.319,30.488,-31.228,1
-1.3150153,3.21661,8.759786,-0.067500606,-0.09254608,-0.024129177,-15.319,30.488,-31.228,1
-1.1324574,3.6272156,7.713519,0.036651913,0.031154128,-0.051618114,-15.319,30.488,-31.228,1
-1.1079168,3.289633,8.641273,-0.03634648,-0.04550946,-0.004886922,-15.319,30.488,-31.228,1
-1.1659763,3.5128925,7.9846625,0.06566802,-0.01985312,-0.03848451,-15.319,30.488,-31.228,1
-1.2593501,3.3147724,8.347384,-0.03481932,0.0021380284,-0.00061086525,-15.319,30.488,-31.556,1
-0.97025025,3.515885,8.224083,-0.004581489,-0.0027488936,-0.040927973,-15.319,30.488,-31.556,1
-1.2006922,3.316568,8.369531,-0.017715093,-0.00580322,-0.029932396,-15.007,30.488,-31.556,1
-1.1725603,3.4207156,8.334815,-0.013133603,-0.07971791,-0.023518313,-15.007,30.488,-31.231,1
-1.1234791,3.4554317,7.9864583,0.01282817,-0.0106901415,-0.007330383,-15.007,30.488,-31.231,1
-0.79487497,3.3476925,8.532935,-0.0125227375,-0.004276057,0.003970624,-15.007,30.488,-31.231,1
-0.9947908,3.4877534,8.059482,0.07086037,0.093767814,-0.06627888,-15.007,30.488,-31.231,1
-1.1731589,3.265691,8.286931,0.047647487,0.089186326,-0.024740042,-15.007,30.488,-31.231,1
-1.5382746,3.5272577,7.909844,0.018325957,0.050396383,-0.07238753,-15.007,30.488,-31.538,1
-1.484405,3.4650085,8.203134,-0.0067195175,-0.0290161,-0.009162978,-14.694,30.488,-31.538,1
-0.931943,3.4542346,7.867347,0.03604105,0.076052725,0.0106901415,-14.694,30.488,-31.225,1
-0.99419224,3.4105403,8.268974,-0.03756821,-0.07971791,-0.011911872,-14.694,30.488,-31.225,1
-1.0636241,3.727772,7.541735,0.058337633,-0.04520403,-0.034513887,-14.694,30.488,-31.225,1
-1.1677719,3.2585084,8.483255,-0.059864793,-0.09193522,0.015882496,-14.694,30.488,-31.225,1
-1.127669,3.3105824,8.37013,-0.002443461,-0.023823744,-0.062308256,-14.694,30.488,-31.225,1
-1.2844892,3.3010056,8.470686,-0.032375857,-0.051618114,-0.03176499,-14.694,30.488,-31.225,1
-1.1312603,3.3854012,8.409035,-0.0106901415,-0.014660766,-0.0015271631,-14.694,30.488,-31.529,1
-1.3940239,3.3273418,8.291121,0.03023783,0.06994407,-0.012217305,-14.694,30.488,-31.529,1
-1.3102269,3.4272997,8.080431,0.084910266,0.077579886,0.006414085,-14.694,30.488,-31.529,1
-1.4012065,3.5290532,8.158242,0.06291912,0.12095132,-0.010079277,-14.694,30.488,-31.529,1
-1.4209588,3.5936968,8.0606785,0.092240654,0.048258353,-0.004581489,-14.366,30.488,-31.529,1
-1.7597382,3.465607,8.170812,-0.051923547,0.23304509,0.0030543262,-14.366,30.186,-31.529,1
-1.3431472,3.3812113,8.738237,-0.16554448,-0.20677789,0.022602014,-14.366,30.186,-31.529,1
-1.1587936,3.4075475,8.46889,-0.065973446,-0.09712757,0.02107485,-14.683,30.186,-31.529,1
-0.8026561,3.2279825,8.504205,0.002443461,-0.07391469,0.015882496,-14.683,30.487,-31.529,1
-1.1935096,3.4410665,7.9595237,0.058948494,-0.055588737,-0.084910266,-14.683,30.487,-31.529,1
-1.42455,3.5290532,8.732851,0.027488936,-0.09193522,-0.086132,-14.683,30.487,-31.529,1
-1.3455414,3.317765,8.702923,-0.03359759,-0.31245756,-0.0290161,-14.984,30.487,-31.219,1
-1.074398,3.3842041,8.214506,-0.019242255,-0.041233405,-0.010079277,-15.299,30.487,-31.55,1
-1.1887212,3.4183214,8.160637,-0.03268129,-0.10476339,-0.0421497,-15.299,30.487,-31.55,1
-1.0869676,3.3500867,8.382699,-0.035124753,-0.046120327,-0.03023783,-15.299,30.487,-31.55,1
-1.0953473,3.366846,8.26658,-0.016493361,-0.056199603,-0.03359759,-15.299,30.487,-31.55,1
-1.0809821,3.46022,8.313866,0.01740966,-0.018936822,-0.017104227,-15.299,30.487,-31.55,1
-1.0666169,3.306991,8.224682,0.011301007,-0.012217305,0.0027488936,-15.299,30.487,-31.55,1
-1.1192893,3.293823,8.218098,-0.012217305,-0.03573562,-0.019547688,-15.299,30.487,-31.55,1
-1.0468647,3.359065,8.417415,-0.058337633,-0.03390302,-0.010079277,-15.299,30.487,-31.55,1
-1.0175357,3.3357215,8.346786,0.008857546,-0.03573562,-0.016493361,-15.299,30.487,-31.24,1
-1.0175357,3.3039982,8.296508,0.004886922,-0.03390302,-0.046731193,-15.299,30.487,-31.24,1
-1.0115502,3.3632548,8.368334,-0.019547688,-0.04520403,-0.022602014,-15.299,30.487,-31.24,1
-1.1079168,3.3530796,8.341399,-0.012217305,-0.019547688,-0.025350908,-15.299,30.487,-31.24,1
-0.99299514,3.2770636,8.378509,0.0018325958,-0.0033597588,-0.023518313,-15.299,30.487,-31.24,1
-0.96546185,3.342904,8.298303,-0.0070249503,-0.03145956,-0.03604105,-15.299,30.487,-31.24,1
-1.1653777,3.2812533,8.625112,-0.026267206,-0.023518313,-0.01038471,-15.299,30.487,-31.24,1
-0.9463082,3.2273839,8.43178,0.020158553,0.035124753,0,-15.299,30.487,-31.547,1
-1.0085574,3.2962172,8.343793,0.01282817,0.017715093,-0.017715093,-15.299,30.487,-31.547,1
-1.2324153,3.2986114,8.669404,0.004276057,0.017104227,-0.011911872,-15.299,30.487,-31.219,1
-1.2455834,3.4793737,7.9409685,0.09010262,0.053145275,-0.016798794,-14.982,30.487,-31.219,1
-1.2198458,3.4314895,8.048109,0.0030543262,-0.036651913,0.008246681,-14.982,30.487,-31.219,1
-1.0965444,3.4674027,8.143278,0.015577064,-0.023823744,-0.018936822,-14.982,30.487,-31.219,1
-1.1785458,3.469797,8.083424,0.012217305,-0.049785517,-0.031154128,-14.982,30.487,-31.219,1
-1.3347675,3.4326868,8.378509,-0.034208454,-0.02565634,-0.053450707,-14.982,30.487,-31.219,1
-1.3018472,3.4979286,8.177995,-0.009468411,-0.022602014,-0.018325957,-14.982,30.487,-31.219,1
-1.0534488,3.2142158,8.595184,-0.021685716,-0.07147124,0.005497787,-15.286,30.487,-31.219,1
-1.0785879,3.3674448,8.381501,-0.011301007,-0.069027774,-0.029321533,-15.286,30.487,-31.521,1
-1.2791022,3.429694,8.259995,-0.03604105,-0.096516706,-0.03634648,-15.286,30.487,-31.521,1
-1.1851299,3.3746274,8.403049,-0.02443461,-0.049480084,-0.028099801,-15.286,30.487,-31.521,1
-0.89184016,3.3824084,8.169016,0.019242255,-0.017715093,0.005192355,-15.286,30.487,-31.521,1
-1.0827777,3.3435028,8.221688,-0.018936822,-0.03268129,-0.027794369,-15.286,30.487,-31.521,1
-0.93972415,3.3991678,8.359355,0.0021380284,-0.015577064,-0.021991149,-15.286,30.487,-31.869,1
-1.0175357,3.3955765,8.246828,0.01038471,0.010995574,-0.004581489,-15.286,30.487,-31.869,1
-1.0594343,3.364452,8.064868,0.013744468,-0.019547688,-0.03145956,-15.286,30.487,-31.869,1
-1.2898762,3.29502,8.548497,-0.03940081,-0.02687807,-0.046731193,-15.286,30.487,-31.549,1
-0.95109665,3.4213142,8.173804,0.0125227375,-0.0125227375,-0.014049901,-15.286,30.487,-31.549,1
-1.0151415,3.328539,8.426991,0.009773844,0.00061086525,-0.038179077,-15.286,30.487,-31.23,1
-1.2731167,3.38181,8.287529,0.030848695,0.028099801,-0.02687807,-15.286,30.487,-31.544,1
-1.1917139,3.3704374,8.455123,0.002443461,0.0061086523,-0.030543262,-15.286,30.487,-31.544,1
-1.1767502,3.4913447,8.323442,0.024129177,0.0030543262,-0.031154128,-14.971,30.487,-31.219,1
-1.2635399,2.9939492,9.61272,-0.1423316,-0.050701816,0.042760566,-14.971,30.487,-31.219,1
-0.87089086,3.5218706,8.257003,-0.04795292,-0.087659165,-0.021380283,-14.971,30.487,-31.219,1
-1.0001777,3.2944214,8.470087,-0.01282817,-0.06994407,-0.028099801,-15.286,30.487,-31.219,1
-1.2976574,3.389591,8.273164,-0.002443461,-0.035430185,-0.048258353,-15.286,30.487,-31.219,1
-1.1348516,3.3512838,8.391677,-0.034208454,-0.027488936,-0.024129177,-15.286,30.796,-31.219,1
-1.0737995,3.3399115,8.378509,-0.013439035,-0.047647487,-0.009162978,-15.286,30.796,-31.219,1
-0.9995792,3.317765,8.285733,0.0018325958,-0.03970624,-0.032070424,-15.286,30.796,-31.219,1
-0.9355343,3.34051,8.15106,0.03970624,0.03848451,-0.04337143,-15.286,30.796,-31.219,1
-1.1150994,3.3782187,8.47727,0.03634648,0.010995574,-0.035124753,-15.286,30.796,-31.219,1
-1.2000936,3.4326868,8.289325,0.051923547,0.004276057,-0.032375857,-15.286,30.484,-31.219,1
-1.299453,3.5224693,8.144476,0.037873644,-0.0021380284,-0.047647487,-15.286,30.484,-31.219,1
-1.122282,3.5488055,7.9990277,0.015577064,-0.056505036,-0.019547688,-14.979,30.484,-31.219,1
-1.0755951,3.4512417,8.098388,0.004581489,-0.033292156,-0.021685716,-14.979,30.172,-31.219,1
-1.1905168,3.3997664,8.316858,-0.007330383,-0.035430185,-0.025961773,-14.979,30.172,-31.219,1
-1.0181342,3.454833,8.368932,-0.014049901,-0.053450707,-0.021380283,-14.979,30.172,-31.53,1
-1.0815806,3.465607,8.279748,0.019242255,-0.0143553335,-0.043676864,-14.979,30.172,-31.53,1
-1.1330559,3.4284968,8.5778265,-0.01160644,-0.00580322,-0.047036625,-14.979,30.172,-31.53,1
-1.0313023,3.5164838,8.292317,0.06536258,0.02107485,-0.05009095,-14.979,30.172,-31.208,1
-1.4437037,3.5619736,8.333019,-0.01985312,-0.22724187,-0.10415252,-15.316,30.172,-31.208,1
-1.0163386,3.5565867,8.240244,-0.004276057,-0.014966198,0.021685716,-15.316,30.172,-31.208,1
-1.0187328,3.4626143,8.170214,0.003970624,-0.08307768,0.0070249503,-15.64,30.172,-31.208,1
-1.1049241,3.5116954,8.244433,0.007330383,-0.028405234,-0.0021380284,-15.64,30.172,-31.208,1
-1.0588357,3.5607765,8.207323,-0.0076358155,-0.045814894,-0.008246681,-15.336,30.172,-31.208,1
-1.1390414,3.5637693,8.119336,0.005497787,-0.047647487,0.00061086525,-15.336,30.172,-31.208,1
-0.8996213,3.425504,8.215703,-0.024740042,-0.026572637,0.039095376,-15.336,30.172,-31.208,1
-0.95468795,3.3028011,8.5862055,-0.018325957,-0.015271631,-0.009468411,-15.336,30.172,-31.208,1
-1.0761937,3.4314895,8.375516,0.01863139,-0.03390302,-0.04917465,-15.336,30.172,-31.208,1
-1.1558008,3.5140896,8.270171,0.0070249503,-0.035430185,-0.052534413,-15.336,30.172,-31.208,1
-1.1007342,3.5553896,8.816648,-0.0009162979,-0.08827003,-0.03726278,-15.336,30.172,-31.208,1
-1.2844892,3.1501708,10.299856,-0.1994475,-0.30024028,-0.08399397,-15.336,30.172,-31.208,1
-1.0181342,3.5003228,8.149862,0.0033597588,-0.009468411,-0.008857546,-15.336,30.172,-31.208,1
-1.0594343,3.4691982,8.130709,0.004276057,-0.029932396,-0.028405234,-15.641,30.172,-31.208,1
-1.0169371,3.5248635,8.384495,-0.018325957,-0.03390302,-0.0076358155,-15.641,30.172,-31.512,1
-0.90740246,3.4051533,8.18398,-0.005497787,-0.043676864,-0.016798794,-15.641,30.172,-31.512,1
-0.9355343,3.526659,8.306683,0.01038471,-0.037873644,-0.035124753,-15.641,30.172,-31.512,1
-0.9624691,3.3967736,8.359355,0.004276057,-0.037873644,-0.038179077,-15.338,30.172,-31.512,1
-1.0474633,3.4733882,8.175002,-0.0009162979,-0.041233405,-0.076052725,-15.338,30.172,-31.512,1
-1.1228806,3.5110967,8.14687,0.03970624,-0.036651913,-0.041233405,-15.338,30.172,-31.512,1
-1.0390835,3.5751417,8.219295,-0.030543262,-0.0842994,-0.03359759,-15.338,30.172,-31.512,1
-0.7170634,3.572149,7.337031,0.08674286,-0.0729984,-0.037873644,-15.338,30.172,-31.814,1
-1.1755531,3.1507695,8.358158,-0.2507602,-0.049480084,-0.101098195,-15.338,30.172,-31.814,1
-1.3413515,3.0232782,10.086173,-0.24770586,0.011911872,-0.05467244,-15.338,30.172,-31.494,1
-1.1887212,3.5883098,8.763377,-0.027794369,-0.05131268,-0.07086037,-15.338,30.49,-31.494,1
-0.92057055,3.280655,8.540716,0.06291912,-0.10476339,-0.0027488936,-15.338,30.81,-31.494,1
-0.98102415,3.3399115,8.553286,0.03940081,-0.09682214,-0.02443461,-15.338,30.81,-31.494,1
-0.8774749,3.3686419,8.3821,0.05955936,-0.035430185,0.0061086523,-15.338,30.81,-31.494,1
-0.9475053,3.3063924,8.188768,0.03176499,-0.06658431,0.007941248,-15.338,30.81,-31.494,1
-0.74519527,3.508104,8.264784,-0.010995574,-0.057726767,-0.024129177,-15.338,30.81,-31.494,1
-0.79487497,3.5003228,8.181585,-0.07971791,-0.019547688,0.014049901,-15.338,30.81,-31.494,1
-0.8415619,3.3476925,8.100781,-0.15668693,0.1554652,-0.016493361,-15.338,30.81,-31.494,1
-0.9935937,3.1741128,8.774749,-0.05222898,-0.005192355,-0.013744468,-15.338,30.81,-31.494,1
-0.8619126,3.2022448,8.258799,0.04184427,-0.06780604,0.009162978,-15.338,30.81,-31.494,1
-1.0875661,3.1615434,8.295909,-0.043066,-0.06994407,-0.008552114,-15.338,30.81,-31.494,1
-0.8738836,3.2573113,7.6530657,-0.10476339,0.02565634,-0.012217305,-15.338,30.81,-31.494,1
-0.7344214,2.7162218,8.867524,-0.27366763,0.04153884,0.06719518,-15.338,31.146,-31.494,1
-1.09834,2.7886465,8.972271,-0.13194689,0.051923547,-0.06658431,-15.338,31.486,-31.494,1
-1.4059949,2.7257986,8.74123,-0.05497787,0.055283304,0.0033597588,-15.338,32.107,-31.494,1
-0.908001,2.690484,8.174403,0.07849618,0.1704314,0.015271631,-15.026,32.107,-31.494,1
-1.6962919,2.790442,8.643666,0.052534413,0.07971791,-0.06811147,-14.715,32.107,-31.494,1
-1.1965023,2.8652608,8.372523,0.05681047,0.0061086523,0.029321533,-14.715,32.107,-31.181,1
-1.3826514,2.8700492,8.611345,0.01863139,-0.021380283,0.0027488936,-14.411,32.107,-31.181,1
-1.3964181,2.8682537,8.308478,0.01740966,-0.0125227375,-0.009162978,-14.411,31.794,-31.181,1
-1.5622166,3.0472202,8.641273,-0.01985312,-0.0693332,-0.059253927,-14.103,31.794,-31.181,1
-1.3449428,3.031658,8.480263,0.032986723,-0.079107046,-0.017715093,-14.103,31.794,-31.484,1
-1.2443863,2.835932,8.784326,0.0018325958,-0.029626964,-0.049785517,-14.103,31.794,-31.484,1
-1.1360487,3.2309752,8.186973,-0.050396383,-0.21227567,-0.01985312,-14.103,31.794,-31.484,1
-1.2671312,2.9843724,8.627506,-0.049785517,-0.07238753,-0.021991149,-14.44,31.794,-31.484,1
-1.3784616,2.9646204,8.51857,0.04062254,-0.059864793,0.002443461,-14.778,31.794,-31.15,1
-1.168969,3.020884,8.464102,-0.004276057,-0.092240654,-0.0143553335,-14.778,31.794,-31.15,1
-1.1204864,3.1591492,8.389881,0.024740042,-0.07971791,-0.020158553,-14.778,31.794,-31.498,1
-0.90021986,3.0573955,8.127716,0.070554934,-0.0290161,0.016493361,-15.095,31.794,-31.498,1
-1.2198458,3.044826,8.458116,0.026267206,-0.032375857,-0.055588737,-15.095,31.794,-31.498,1
-0.9660604,3.1789012,8.456919,0.019547688,-0.052534413,-0.028405234,-15.095,31.474,-31.498,1
-1.3072342,3.2932243,8.29531,0.032070424,-0.009162978,-0.07086037,-15.095,31.474,-31.498,1
-1.6753427,3.57993,5.5389857,0.06291912,-0.082161374,-0.04795292,-15.095,31.474,-31.137,1
-1.3102269,3.1429882,8.359954,-0.04886922,0.11636983,0.03268129,-15.095,31.474,-31.137,1
-1.1019313,3.1453824,8.222287,0.016798794,-0.03634648,-0.007941248,-15.095,31.474,-31.137,1
-1.2252327,2.926313,8.577228,-0.046731193,-0.0693332,-0.031154128,-15.095,31.474,-31.137,1
-1.127669,2.9317,8.677784,-0.011301007,-0.03023783,-0.0290161,-15.095,31.474,-31.137,1
-1.2485762,3.1998506,9.355343,0.015577064,-0.07391469,-0.028099801,-15.095,31.474,-31.137,1
-1.3042414,3.107674,8.465299,0.017715093,-0.111177474,-0.023823744,-15.095,31.474,-31.137,1
-0.9331401,3.1022868,8.337808,0.058337633,0.021380283,0.018325957,-15.095,31.782,-31.137,1
-1.429937,3.0693667,8.1558485,0.03756821,0.028710667,-0.027488936,-15.095,31.782,-31.137,1
-1.2114661,3.2279825,8.268974,0.03573562,0.042760566,0.007941248,-15.095,31.782,-31.137,1
-1.3485341,3.180697,8.491036,0.05009095,-0.006414085,-0.049785517,-15.095,31.782,-31.445,1
-1.5969325,3.4434607,7.026982,0.106595986,-0.057421334,-0.026267206,-15.095,31.462,-31.445,1
-1.0953473,3.1920695,8.257003,0.03359759,0.016798794,0.010079277,-15.095,31.462,-31.445,1
-1.2671312,3.1836896,8.401853,0.032986723,-0.01282817,-0.03390302,-15.095,31.462,-31.12,1
-1.3880384,3.12982,8.421006,0.084910266,0.046120327,-0.025350908,-15.394,31.462,-31.12,1
-1.4826094,3.3345244,8.152257,0.17623462,0.22204952,-0.03481932,-15.394,31.141,-31.12,1
-1.6795325,3.690662,6.862979,0.11301007,0.02565634,-0.022907447,-15.065,31.141,-31.12,1
-1.4856021,3.5093012,8.381501,-0.01282817,-0.029626964,-0.012217305,-14.741,30.827,-31.12,1
-1.3736732,3.53863,8.107366,0.04795292,-0.029321533,-0.018325957,-14.741,30.827,-31.12,1
-1.553837,3.1842883,9.100959,-0.22724187,-0.11178834,-0.06994407,-14.741,30.827,-31.12,1
-1.1240777,3.2513258,8.631097,-0.059864793,-0.14569137,0.0015271631,-14.741,30.827,-31.12,1
-1.163582,3.2112231,8.422802,-0.07849618,-0.07788532,-0.055588737,-14.741,30.827,-30.796,1
-1.5544355,3.1549592,8.598177,-0.0067195175,-0.05222898,-0.094989546,-14.741,30.827,-30.796,1
-1.186327,3.3183637,8.117541,0.019547688,-0.015882496,-0.038789943,-14.741,30.827,-31.12,1
-1.2132617,3.2746694,8.169016,0.023823744,-0.04184427,-0.029321533,-14.741,30.827,-31.12,1
-1.3156139,3.2674868,8.232463,0.006414085,0.004581489,-0.029321533,-14.741,30.827,-31.12,1
-1.2964603,3.1531637,8.494628,0.0027488936,0.016798794,-0.02565634,-14.741,30.827,-30.819,1
-1.353921,3.2531216,8.467693,0.01985312,-0.007330383,-0.03726278,-14.741,30.827,-30.819,1
-1.2384008,3.309984,8.411429,0.03634648,-0.015271631,-0.020463986,-14.741,30.827,-30.819,1
-1.1468226,3.3333273,8.392874,0.15943582,0.028405234,-0.06169739,-14.741,30.827,-30.819,1
-1.8614918,3.3638535,9.266758,-0.124311075,-0.14966199,-0.08979719,-14.741,30.827,-30.819,1
-1.1779473,3.4715924,7.9768815,0.01038471,-0.040011674,0.054061573,-14.741,30.827,-30.819,1
-1.0947487,3.2788591,8.516175,-0.064446285,-0.052839845,0.0143553335,-14.741,30.827,-30.819,1
-1.264737,3.3734303,8.377312,0.005497787,-0.042455133,0.0036651916,-14.741,30.827,-30.819,1
-1.3138182,3.2124202,8.405443,-0.09560041,-0.08277224,-0.031154128,-14.741,30.827,-30.819,1
-1.3012487,3.2555158,8.634089,-0.084910266,-0.11026118,-0.016493361,-14.741,30.827,-31.12,1
-0.8487445,3.2094274,8.560468,-0.092240654,-0.15241088,-0.005192355,-15.051,30.827,-31.12,1
-0.9816227,2.973,8.810662,-0.0852157,-0.13194689,-0.022907447,-15.051,31.155,-31.437,1
-1.1540052,3.2615013,8.682572,-0.019547688,-0.055588737,-0.077579886,-15.379,31.155,-31.747,1
-1.1935096,3.180697,8.395866,0.02687807,-0.007941248,-0.029932396,-15.379,31.155,-31.747,1
-1.5693992,3.4111388,7.0688806,0.12675454,-0.026572637,-0.052534413,-15.379,31.155,-31.747,1
-0.7637503,3.3596635,8.140884,0.02321288,-0.007330383,0.06658431,-15.687,31.155,-31.747,1
-1.1067197,3.095703,8.429984,0.04520403,-0.03756821,-0.042455133,-15.687,31.155,-31.747,1
0.87328506,4.835689,6.647501,-0.28802297,0.0720821,0.86101454,9.053,3.448,8.111,1
-0.33279404,4.724957,7.876325,0.10720685,-0.43951756,0.106595986,8.615,6.575,8.877,1
-0.7308301,5.149928,7.1365166,0.080634214,-0.34422258,0.18784106,9.95,6.88,8.877,1
-1.6609775,4.6603136,8.857947,-0.0421497,0.29932398,0.42577308,9.483,6.88,8.563,1
-1.299453,5.269039,6.1770406,0.23335053,0.56291234,0.6719518,9.483,6.489,8.563,1
-3.2273839,3.667917,9.898827,-0.5030475,0.37751472,0.6612616,9.786,5.747,8.863,1
-1.6944963,4.458602,7.1790137,-0.26145032,0.52473325,0.81153446,9.786,4.708,9.19,1
-1.0516531,5.0302176,7.128137,0.027488936,0.49266282,0.67347896,9.449,4.377,9.529,1
-1.0827777,5.031415,6.8282633,0.19394971,0.3436117,0.49021935,9.129,3.668,9.529,1
-0.86251116,5.203199,6.9599442,0.03940081,0.20922135,0.32559118,8.769,2.983,9.529,1
-0.5662287,5.194819,8.396465,0.0061086523,-0.010995574,0.15088372,8.769,2.293,9.829,1
-0.107739076,5.662287,8.134899,-0.31948254,-0.006414085,0.0125227375,8.769,1.918,10.159,1
-0.021547815,3.4045548,10.725425,-0.4361578,-0.3726278,-0.20433442,8.451,1.596,9.79,1
-0.86969376,4.770447,5.8262897,0.419359,0.441961,-0.3894266,8.145,1.596,9.442,1
-0.7505822,3.8857894,8.44016,-0.07452556,-0.079107046,-0.05100725,8.145,1.596,9.442,1
-0.8655039,4.3119574,7.4926543,0.17592919,-0.09773844,-0.11178834,8.459,1.596,9.442,1
-1.1210849,4.5100775,7.5626845,0.12980886,0.0571159,0.12980886,8.763,1.596,9.442,1
-0.8595184,4.3394904,8.046912,-0.116980694,-0.12064589,0.20952678,8.439,1.286,9.442,1
-0.9923966,4.420295,7.671621,0.15241088,-0.009773844,-0.0720821,8.439,0.971,9.442,1
-0.8900445,4.4394484,7.3537903,0.0070249503,-0.119729586,-0.008857546,8.12,0.666,9.442,1
-1.5077485,4.299388,8.256405,-0.09132435,-0.19700404,-0.05100725,8.12,0.666,8.828,1
-1.3257892,4.5938745,8.139688,-0.02687807,-0.1432479,-0.013439035,8.12,0.666,8.508,1
-1.4443022,5.1140146,7.5644803,-0.052534413,-0.090713486,-0.030848695,8.12,0.666,8.149,1
-0.9151836,5.3037553,7.3460093,0.013133603,-0.06536258,-0.005192355,7.817,0.666,7.481,1
-0.7517793,5.4659624,7.328053,-0.12980886,-0.1459968,-0.008246681,7.507,0.666,7.481,1
-1.3581109,5.2289367,7.3885064,-0.14477506,-0.17073683,-0.044898596,7.507,0.666,6.773,1
-0.62728083,5.0691237,7.641693,0.067500606,-0.29168814,-0.101098195,7.182,0.666,6.379,1
-0.25378537,4.9536033,7.7691846,0.07269296,-0.41783184,-0.14110987,6.509,0.982,5.715,1
-0.4429273,4.970961,8.118139,-0.010995574,-0.34972036,-0.2657264,6.509,0.982,5.715,1
0.5410896,5.2798133,7.941567,0.05009095,-0.12308934,-0.15149458,6.163,0.68,5.403,1
0.4249708,3.8361096,8.513183,-0.53969944,-0.22785273,-0.35460728,6.163,0.987,5.038,1
0.47165772,3.9785647,8.406042,0.25595254,0.1704314,-0.45998153,5.821,1.684,3.967,1
-0.0688333,4.2640734,8.319851,-0.0143553335,-0.19028452,-0.0852157,5.821,2.362,3.607,1
0.7015011,4.553173,7.934983,0.036957346,-0.090713486,-0.17012598,6.507,2.362,3.277,1
0.5129577,4.729147,7.357382,0.17195857,0.17623462,-0.05375614,6.82,2.362,3.277,1
0.65421563,4.6561236,8.260594,0.013133603,0.030848695,-0.017104227,6.82,2.362,3.277,1
0.28191724,5.4366336,8.222287,0.023823744,0.021991149,-0.025350908,7.153,2.035,2.976,1
0.4369418,5.4144874,6.8168907,0.21746802,-0.05467244,0.21105394,7.153,1.722,2.976,1
1.0666169,5.061941,7.6333137,-0.040317107,-0.16187929,0.40225476,7.453,1.406,2.976,1
-0.029927522,5.3324857,8.440758,0.027488936,-0.19242255,0.28588495,6.774,1.074,2.976,1
-2.3959973,2.5366566,10.365696,-0.61300325,-0.63621616,0.129198,6.146,1.074,2.325,1
-0.6572084,2.1039047,9.386468,-0.03176499,0.08277224,0.46883908,5.046,1.437,1.637,1
-0.973243,2.7605145,8.584411,0.2602286,0.21899518,0.50488013,4.353,1.751,1.312,1
-0.5201403,3.489549,7.5968018,0.026572637,0.19150625,0.42485678,4.353,1.751,1.312,1
-0.027533319,4.0438066,8.244433,0.046120327,0.33292156,0.45875978,4.353,1.446,1.312,1
0.12449849,4.3837833,7.439982,0.038789943,0.45051312,0.5717699,4.353,0.81,1.312,1
0.17537527,4.770447,7.2233067,0.20677789,0.34025195,0.4361578,4.353,0.473,1.312,1
-0.01616086,5.517438,6.712743,0.0571159,0.11942416,0.19120082,4.353,-0.202,1.971,1
0.66379243,2.8550856,10.399814,0.42058071,-1.1032226,-0.34025195,4.353,-0.202,1.971,1
1.2306197,2.896984,7.707534,0.23426682,0.0030543262,0.1591304,4.353,-0.531,1.651,1
0.84096336,3.632004,7.505822,-0.094989546,0.22357668,0.15149458,4.748,-1.144,1.651,1
1.1587936,4.8057613,7.0766616,-0.105374254,0.27305678,0.17134771,5.436,-1.502,2.001,1
0.81163436,4.702811,8.595782,-0.20433442,0.26053402,0.18112154,5.804,-1.502,2.001,1
0.3321955,4.845266,9.137471,0.077579886,0.26725355,0.17134771,6.137,-1.502,1.611,1
0.3681085,4.894945,7.433996,0.5448918,0.48624873,0.2565634,6.86,-1.193,1.303,1
-0.08020575,5.617396,7.629722,0.70005155,0.64996064,0.28008172,7.643,-2.134,2.465,1
-0.2184709,5.5497594,8.5060005,-0.26053402,0.22388211,0.1301143,8.674,-3.482,3.889,1
-2.9640217,3.775656,8.585009,0.33292156,0.19456059,0.30634892,9.364,-4.156,4.223,1
-0.92655605,4.1216183,6.616975,0.07941248,0.109650314,0.50885075,9.692,-4.763,4.533,1
-1.0546459,4.759074,6.932411,0.10720685,0.15241088,0.047647487,10,-5.088,4.533,1
-1.7447745,5.1744685,7.8583684,0.1704314,-0.09254608,0.08857546,9.596,-5.427,4.833,1
-1.1785458,5.495291,7.2981253,0.1600467,-0.1872302,0.016493361,9.262,-6.036,4.833,1
-1.1791444,5.961562,6.6480994,0.15882497,-0.29443705,-0.019242255,8.952,-6.391,4.833,1
-0.4782418,6.4565635,6.3589997,0.21594086,-0.38515055,-0.06352998,8.952,-6.707,5.201,1
-0.81881696,6.682217,6.1064115,0.27672195,-0.35216382,-0.18936823,8.294,-7.397,5.201,1
-0.36032736,6.7666125,7.153276,0.19425514,-0.3475823,-0.22785273,7.96,-8.071,5.897,1
0.2657564,6.3153057,6.5828576,-0.061086524,-0.06841691,-0.38515055,7.96,-8.378,6.221,1
0.7673417,4.782418,8.710106,-0.32620203,-0.30451632,-0.2593123,7.96,-8.378,5.798,1
0.6123171,5.4671597,7.0461354,-0.034208454,-0.07147124,-0.32070425,8.662,-7.756,5.474,1
0.22864626,5.3145294,7.107786,-0.14355333,-0.121256754,-0.15302174,8.963,-7.017,4.425,1
0.30945057,5.73112,6.213552,0.14477506,0.028099801,-0.15882497,9.289,-6.68,3.779,1
-0.110731825,5.9741316,6.757634,-0.15088372,0.047647487,-0.07452556,9.289,-6.367,3.779,1
-0.36511576,6.042965,6.6959834,-0.038179077,0.20525073,0.028099801,9.941,-6.367,3.779,1
0.350152,6.1112,7.7105265,0.10720685,0.31306845,0.20861048,10.252,-6.367,3.477,1
0.51475334,6.613982,7.6728177,0.20952678,0.2883284,0.312763,10.571,-6.367,3.477,1
-0.09995792,6.1866174,8.471284,-0.11881329,0.19211712,0.21166481,10.9,-6.684,4.17,1
-1.4981717,4.6112323,9.35235,0.07666359,0.23701571,0.052534413,11.239,-7.051,4.483,1
-1.6400281,4.981735,5.645528,0.33444872,0.19761491,0.3295618,11.553,-7.051,4.789,1
-0.85054016,4.8775873,7.073669,0.18417588,-0.0870483,0.119729586,11.553,-7.74,5.116,1
-1.347337,5.7335143,6.0609217,0.6059783,0.065973446,-0.09315695,11.553,-8.447,5.755,1
-1.7399861,6.52001,6.241085,-0.24556783,-0.38515055,-0.083383106,11.553,-9.159,6.1,1
-1.2126632,6.3589997,6.244078,0.12889257,-0.19822577,-0.21227567,11.553,-9.48,6.442,1
-0.98222125,6.447585,6.361394,-0.07360926,-0.45234573,-0.017104227,11.553,-9.48,6.118,1
-0.7625532,6.578069,6.239888,-0.11209377,-0.5580254,-0.15088372,10.882,-9.167,5.76,1
-1.1558008,6.8569937,6.0238113,0.183565,-0.49510628,-0.26236662,10.137,-8.853,5.094,1
-0.24540567,6.9605427,6.907272,0.07360926,-0.7883216,-0.1469131,9.449,-8.853,4.49,1
0.65541273,8.049905,6.323685,0.15057829,-0.56107974,-0.4361578,9.062,-8.853,4.151,1
0.41718966,5.1038394,8.323442,-0.16462818,-0.55771995,-0.364992,8.383,-8.853,3.819,1
1.2635399,5.9412117,6.0836663,0.33628133,-0.20922135,-0.19883664,8.383,-8.508,3.137,1
-0.059855044,5.5844755,7.743447,-0.29046643,-0.13133603,-0.023518313,8.383,-8.152,2.522,1
0.5823896,5.7365074,6.915053,-0.17806722,0.1151481,0.0061086523,8.383,-7.527,2.198,1
0.13108255,6.1501055,6.284181,-0.20280726,0.19853121,0.08002335,8.706,-7.176,1.882,1
0.0017956513,6.105214,6.7785835,-0.2312125,0.26206118,0.22052236,9.036,-6.813,1.882,1
0.51116204,6.1141925,7.0024414,-0.22113322,0.3155119,0.29535335,9.712,-6.51,1.882,1
0.5554548,6.167464,6.8557963,-0.23609942,0.39950588,0.27366763,10.046,-6.172,1.882,1
0.07182605,6.4577603,6.6762314,-0.09743301,0.52381694,0.21319197,10.388,-5.819,1.553,1
-0.06584055,6.634333,7.225102,0.03848451,0.5766568,0.14935656,11.076,-5.503,1.553,1
-0.6835446,6.1243677,7.569867,-0.31245756,0.58184916,0.23304509,11.77,-5.184,1.553,1
-1.1168951,4.0066967,8.585608,0.267559,0.38789943,0.21227567,12.847,-4.496,1.217,1
-2.0530279,4.19105,7.165846,0.04337143,0.19639318,0.3155119,13.507,-4.496,1.217,1
-0.32621,4.991312,8.300697,0.045814894,-0.12461651,0.038179077,13.507,-4.194,1.217,1
-1.4885949,5.313332,7.152079,0.34116822,-0.083383106,-0.08399397,13.507,-4.536,1.217,1
-0.997185,6.002862,6.3907228,0.10781772,-0.27977628,-0.040011674,13.507,-4.847,1.858,1
-1.271321,6.035184,6.712743,0.13072516,-0.27183503,-0.18936823,13.507,-4.847,1.858,1
-0.99299514,6.0501475,6.5008564,0.0027488936,-0.49693888,-0.15699236,13.172,-5.155,1.858,1
-0.79248077,6.3368535,6.084265,0.016187929,-0.56291234,-0.21105394,12.44,-5.155,1.858,1
-0.5758055,6.483498,6.330868,-0.0076358155,-0.66248333,-0.23304509,11.72,-4.838,1.519,1
-0.39264908,6.545149,6.4182563,-0.03970624,-0.70707655,-0.28771752,10.633,-4.525,0.759,1
-0.15322891,6.775591,6.8204823,0.1001819,-0.5815437,-0.4007276,9.6,-4.173,-0.01,1
-0.5955577,6.4709287,7.575853,-0.4251622,-0.26328292,-0.45081854,8.546,-3.483,-0.721,1
1.0540473,4.5178585,8.430583,-0.038789943,-0.33841935,-0.17134771,7.847,-2.392,-1.968,1
1.34195,4.38498,7.677606,0.1563815,-0.22937989,-0.18081611,7.507,-1.197,-2.581,1
1.6472107,4.8189297,7.255628,-0.22907446,-0.21777347,-0.076052725,7.196,-0.854,-2.926,1
1.3742718,5.5737014,7.1849995,-0.04886922,-0.035430185,-0.32467487,6.565,-0.517,-2.926,1
0.017357962,5.409699,6.489484,0.069027774,0.106595986,-0.19517145,6.565,0.233,-3.25,1
0.6488287,5.157709,7.2005615,-0.15821409,0.17959438,0.056199603,6.565,0.898,-3.623,1
0.5129577,5.7203465,7.129933,-0.26297748,0.21838433,0.061086524,6.919,1.223,-3.93,1
0.045489833,6.019622,7.2322845,-0.077579886,0.398895,0.026572637,7.617,1.966,-3.93,1
0.10474633,5.940613,6.8599863,-0.100792766,0.47250426,0.21044308,8.679,2.653,-3.93,1
0.030526072,5.9843073,7.607576,-0.095294975,0.49266282,0.20463985,9.77,3.005,-3.558,1
-1.0480618,4.9799395,9.008782,-0.6731735,0.4089743,0.122478485,10.937,3.657,-3.184,1
-1.0977415,3.5727475,8.1079645,0.25320363,0.4089743,0.28344148,11.589,4.791,-3.184,1
-1.3802572,2.995745,7.9146323,0.039095376,-0.016187929,0.61483586,11.9,5.563,-3.184,1
-1.0229226,3.654749,10.024523,-0.0030543262,-0.07086037,0.03604105,11.585,5.902,-3.579,1
-0.91578215,4.4196963,7.4016747,0.34391713,0.049480084,0.10170906,11.259,5.902,-3.886,1
-0.42676646,4.4687777,7.1371155,0.18234327,-0.3213151,0.04062254,10.939,5.577,-4.212,1
-0.80684596,5.059547,7.36636,0.05009095,-0.28191432,-0.26511553,10.578,5.172,-4.212,1
-0.9032126,5.3618145,7.157466,0.105068825,-0.40103304,-0.28344148,10.22,4.841,-4.212,1
-0.8487445,5.3516393,7.1844006,0.11881329,-0.5271767,-0.2938262,9.576,4.841,-4.212,1
-0.4405331,5.763442,7.3460093,0.14110987,-0.5696318,-0.32406402,8.488,4.841,-4.212,1
-0.2220622,6.143522,7.5267715,0.22479841,-0.61391956,-0.41325033,7.785,4.841,-3.82,1
0.18016368,6.8240733,7.7727757,0.14630222,-0.50732356,-0.4822781,6.668,4.841,-3.82,1
0.66738373,3.8654387,9.739613,-0.5027421,-0.72509706,-0.05009095,5.636,5.186,-3.82,1
0.729633,4.2341456,6.47033,0.0125227375,-0.23396139,-0.11056661,4.475,5.961,-4.487,1
2.071583,3.7313633,8.09719,-0.119729586,-0.17134771,0.00030543262,3.799,6.881,-4.794,1
2.1140802,3.980959,9.654618,-0.13988814,-0.27550024,-0.0729984,3.454,7.211,-4.794,1
1.0181342,4.8201265,7.769783,0.16920967,-0.008857546,-0.1151481,2.764,7.824,-4.794,1
0.75716627,4.7261543,6.965331,0.040011674,0.10751228,0.18051068,2.764,7.824,-4.794,1
1.4826094,5.0302176,7.201759,-0.124311075,0.19181168,0.19639318,2.764,7.824,-4.794,1
0.87927055,5.507262,7.7374616,-0.07544186,0.3830125,0.15332718,3.439,7.516,-4.435,1
0.3172317,5.511452,7.66384,0.07360926,0.5897904,0.22510384,4.185,7.516,-4.127,1
0.8924387,5.5760956,7.229292,0.129198,0.7174612,0.3005457,5.865,7.516,-3.724,1
0.7248446,6.053739,7.4112515,0.24007004,0.7281514,0.23426682,8.419,7.208,-3.724,1
0.025737667,6.3033347,7.0515227,0.044898596,0.752586,0.24953845,10.173,6.869,-3.379,1
-2.3080103,3.2034419,11.157578,-0.12583824,0.2996294,0.18325958,11.302,6.869,-2.731,1
-0.6278794,3.4650085,6.67683,0.09987647,0.20616703,0.7669413,12.405,6.869,-2.392,1
-1.5101427,4.344279,10.126276,-0.1282817,0.07666359,-0.05467244,13.02,6.544,-2.392,1
-1.0540473,4.794389,7.817667,0.34025195,0.101098195,0.049480084,13.32,6.217,-2.392,1
-0.92176765,5.0463786,6.8132997,0.2593123,-0.23609942,-0.016493361,13.32,5.541,-2.076,1
-1.1887212,5.9011087,6.4547677,0.063224554,-0.2932153,-0.29352075,13.621,4.861,-1.774,1
-0.6835446,5.8717794,6.6852098,0.099571034,-0.5326745,-0.27763826,13.621,4.553,-1.774,1
-0.47046062,5.3755813,7.0491285,0.09437868,-0.7370089,-0.41630468,12.965,4.553,-2.146,1
-0.9780314,5.990891,7.1341224,-0.02076942,-0.76144356,-0.60994893,11.851,4.553,-2.786,1
-0.6572084,5.932832,7.103596,0.21044308,-0.7968737,-0.6542367,10.478,4.896,-3.846,1
0.038905777,6.8366427,7.3418193,0.11301007,-0.69974613,-0.7058548,9.037,5.276,-4.96,1
-0.49200845,3.7750576,11.795034,-0.55771995,-0.74464476,-0.48808134,7.841,5.998,-5.294,1
0.25318682,4.450821,6.95755,0.42455134,-0.2929099,-0.41691554,7.18,6.674,-5.613,1
0.39264908,4.231153,8.113351,-0.16523905,-0.27275133,-0.039095376,6.826,6.98,-5.613,1
1.1049241,5.182848,7.538144,0.049785517,-0.1282817,0.053145275,6.138,6.98,-5.935,1
0.5315128,5.2905874,6.964134,0.17928895,0.058643065,0.008552114,5.802,6.98,-5.935,1
0.4902128,5.474941,6.469133,0.053145275,0.14844026,0.11362094,5.491,6.98,-5.935,1
0.16998832,5.8226986,7.1550717,-0.15790866,0.19211712,0.12492194,5.491,6.677,-5.935,1
-0.10534488,5.816713,6.771401,-0.11728613,0.38026363,0.22785273,5.818,6.677,-5.935,1
0.095768064,5.705383,7.1383123,-0.061391957,0.5311473,0.3454443,6.483,7.347,-6.26,1
0.272939,5.9878983,7.691373,0.06780604,0.68325275,0.34605515,7.594,7.649,-6.57,1
-0.09995792,6.2009826,6.7306995,-0.09987647,0.7834347,0.44776422,9.912,7.649,-6.088,1
-1.4024036,3.994127,10.270527,-0.20189096,0.4382958,0.2941316,10.601,7.649,-5.285,1
-0.90979666,3.6619315,7.0982094,0.15149458,0.2666427,0.55924714,11.727,7.977,-5.285,1
-1.4532804,4.298789,9.616311,-0.32070425,-0.07727446,0.26542094,12.057,7.977,-5.285,1
-1.0726024,4.51726,8.301894,0.3118467,0.2770274,0.16371189,12.38,7.977,-5.285,1
-0.8283938,4.7165775,6.7546415,0.41263947,0.029321533,0.1704314,12.709,7.327,-4.949,1
-1.1498153,5.475539,6.9719152,0.122783914,-0.10293079,-0.0842994,12.709,6.193,-4.629,1
-0.80924016,5.787384,7.033566,0.093767814,-0.26236662,-0.13500121,12.709,5.471,-4.286,1
-0.7200562,5.583877,6.9342065,0.044898596,-0.3998113,-0.17531833,12.382,5.155,-4.286,1
-0.6769605,5.7508726,6.625355,0.053450707,-0.42485678,-0.30085114,11.724,4.841,-4.946,1
-0.6865373,6.1542954,6.2823853,0.103847094,-0.47800204,-0.3827071,11.038,4.841,-5.25,1
-0.7457938,5.7736173,7.2370734,-0.06291912,-0.68844515,-0.47616947,9.936,4.841,-5.947,1
-0.5943606,6.194997,6.8240733,0.016493361,-0.77304995,-0.49235737,8.581,5.172,-6.278,1
-0.44472298,6.7426705,7.3226657,0.07544186,-0.76144356,-0.51159966,7.133,5.485,-6.645,1
-1.893215,4.56694,10.077195,-0.9297369,-0.7504479,-0.49174652,5.549,5.793,-6.977,1
0.5177461,3.9252937,7.2490444,0.27030787,-0.31215215,-0.18997909,4.13,6.422,-7.717,1
0.25797522,4.0162735,7.9463553,0.05222898,-0.017104227,-0.049480084,2.713,7.075,-8.029,1
1.0630256,4.0599675,8.403648,-0.122783914,0.033292156,0.13652839,2.713,6.704,-7.701,1
0.41240123,4.6124296,8.373122,0.258396,0.28680122,0.18325958,2.713,6.396,-7.061,1
0.17597382,4.8614264,7.965509,0.34422258,0.3866777,0.3652974,2.713,6.396,-7.061,1
0.9091981,5.4444146,6.445191,0.22174409,0.46395215,0.4896085,3.054,5.679,-6.75,1
0.6925228,5.7418942,6.6870055,-0.05375614,0.38881573,0.49602258,3.713,4.969,-6.019,1
0.05746084,5.5300074,7.78355,-0.119729586,0.5195409,0.5177083,4.426,4.614,-5.683,1
0.47524905,5.8741736,6.9665284,-0.0036651916,0.6649268,0.5564982,5.091,4.299,-5.368,1
1.371279,6.3272767,6.3883286,-0.034208454,0.6078109,0.57848936,6.167,4.299,-5.032,1
1.1067197,6.10701,7.318476,-0.018020526,0.43951756,0.49632803,7.148,3.961,-4.655,1
0.76434886,5.9250507,7.6243353,0.0061086523,0.45998153,0.36102137,7.853,3.634,-4.013,1
-0.12808979,5.8226986,6.8522053,-0.50426924,0.49938235,0.22785273,8.575,3.327,-4.013,1
-0.9888053,4.4837413,8.244433,-0.05955936,0.48991394,0.17623462,9.303,3.327,-3.652,1
-0.76075757,3.8444893,7.6728177,0.100792766,0.2574797,0.46975538,10,3.633,-3.652,1
-0.16699557,4.2922053,8.838794,-0.07360926,0.07727446,0.16982053,10.301,3.633,-3.652,1
-0.8182184,4.7279496,8.572439,0.39553526,0.26847526,-0.22907446,10.624,3.314,-3.652,1
-1.0432734,4.995502,6.7947445,0.42577308,-0.05222898,-0.28802297,11.265,2.995,-3.314,1
-0.87687635,5.233126,7.00304,0.32070425,-0.18875736,-0.44806966,11.961,1.869,-2.099,1
